# 
#                 ----------------------------------------------------
#                 Data from a 3D direct N-body simulation. 
# 
#                 rows are i-particle; 
#                 coumns are :mass, tag, x ,y, z, vx, vy, vz, ax, ay, az
# 
#                 NTHU, Computational Physics 
# 
#                 ----------------------------------------------------
#                 Time = 0.0
0.000000000000000000e+00 1.000000000000000000e+00 2.000000000000000000e+00 3.000000000000000000e+00 4.000000000000000000e+00 5.000000000000000000e+00 6.000000000000000000e+00 7.000000000000000000e+00 8.000000000000000000e+00 9.000000000000000000e+00 1.000000000000000000e+01 1.100000000000000000e+01 1.200000000000000000e+01 1.300000000000000000e+01 1.400000000000000000e+01 1.500000000000000000e+01 1.600000000000000000e+01 1.700000000000000000e+01 1.800000000000000000e+01 1.900000000000000000e+01 2.000000000000000000e+01 2.100000000000000000e+01 2.200000000000000000e+01 2.300000000000000000e+01 2.400000000000000000e+01 2.500000000000000000e+01 2.600000000000000000e+01 2.700000000000000000e+01 2.800000000000000000e+01 2.900000000000000000e+01 3.000000000000000000e+01 3.100000000000000000e+01 3.200000000000000000e+01 3.300000000000000000e+01 3.400000000000000000e+01 3.500000000000000000e+01 3.600000000000000000e+01 3.700000000000000000e+01 3.800000000000000000e+01 3.900000000000000000e+01 4.000000000000000000e+01 4.100000000000000000e+01 4.200000000000000000e+01 4.300000000000000000e+01 4.400000000000000000e+01 4.500000000000000000e+01 4.600000000000000000e+01 4.700000000000000000e+01 4.800000000000000000e+01 4.900000000000000000e+01 5.000000000000000000e+01 5.100000000000000000e+01 5.200000000000000000e+01 5.300000000000000000e+01 5.400000000000000000e+01 5.500000000000000000e+01 5.600000000000000000e+01 5.700000000000000000e+01 5.800000000000000000e+01 5.900000000000000000e+01 6.000000000000000000e+01 6.100000000000000000e+01 6.200000000000000000e+01 6.300000000000000000e+01 6.400000000000000000e+01 6.500000000000000000e+01 6.600000000000000000e+01 6.700000000000000000e+01 6.800000000000000000e+01 6.900000000000000000e+01 7.000000000000000000e+01 7.100000000000000000e+01 7.200000000000000000e+01 7.300000000000000000e+01 7.400000000000000000e+01 7.500000000000000000e+01 7.600000000000000000e+01 7.700000000000000000e+01 7.800000000000000000e+01 7.900000000000000000e+01 8.000000000000000000e+01 8.100000000000000000e+01 8.200000000000000000e+01 8.300000000000000000e+01 8.400000000000000000e+01 8.500000000000000000e+01 8.600000000000000000e+01 8.700000000000000000e+01 8.800000000000000000e+01 8.900000000000000000e+01 9.000000000000000000e+01 9.100000000000000000e+01 9.200000000000000000e+01 9.300000000000000000e+01 9.400000000000000000e+01 9.500000000000000000e+01 9.600000000000000000e+01 9.700000000000000000e+01 9.800000000000000000e+01 9.900000000000000000e+01
1.000000000000000056e-01 1.000000000000000056e-01 1.000000000000000056e-01 1.000000000000000056e-01 1.000000000000000056e-01 1.000000000000000056e-01 1.000000000000000056e-01 1.000000000000000056e-01 1.000000000000000056e-01 1.000000000000000056e-01 1.000000000000000056e-01 1.000000000000000056e-01 1.000000000000000056e-01 1.000000000000000056e-01 1.000000000000000056e-01 1.000000000000000056e-01 1.000000000000000056e-01 1.000000000000000056e-01 1.000000000000000056e-01 1.000000000000000056e-01 1.000000000000000056e-01 1.000000000000000056e-01 1.000000000000000056e-01 1.000000000000000056e-01 1.000000000000000056e-01 1.000000000000000056e-01 1.000000000000000056e-01 1.000000000000000056e-01 1.000000000000000056e-01 1.000000000000000056e-01 1.000000000000000056e-01 1.000000000000000056e-01 1.000000000000000056e-01 1.000000000000000056e-01 1.000000000000000056e-01 1.000000000000000056e-01 1.000000000000000056e-01 1.000000000000000056e-01 1.000000000000000056e-01 1.000000000000000056e-01 1.000000000000000056e-01 1.000000000000000056e-01 1.000000000000000056e-01 1.000000000000000056e-01 1.000000000000000056e-01 1.000000000000000056e-01 1.000000000000000056e-01 1.000000000000000056e-01 1.000000000000000056e-01 1.000000000000000056e-01 1.000000000000000056e-01 1.000000000000000056e-01 1.000000000000000056e-01 1.000000000000000056e-01 1.000000000000000056e-01 1.000000000000000056e-01 1.000000000000000056e-01 1.000000000000000056e-01 1.000000000000000056e-01 1.000000000000000056e-01 1.000000000000000056e-01 1.000000000000000056e-01 1.000000000000000056e-01 1.000000000000000056e-01 1.000000000000000056e-01 1.000000000000000056e-01 1.000000000000000056e-01 1.000000000000000056e-01 1.000000000000000056e-01 1.000000000000000056e-01 1.000000000000000056e-01 1.000000000000000056e-01 1.000000000000000056e-01 1.000000000000000056e-01 1.000000000000000056e-01 1.000000000000000056e-01 1.000000000000000056e-01 1.000000000000000056e-01 1.000000000000000056e-01 1.000000000000000056e-01 1.000000000000000056e-01 1.000000000000000056e-01 1.000000000000000056e-01 1.000000000000000056e-01 1.000000000000000056e-01 1.000000000000000056e-01 1.000000000000000056e-01 1.000000000000000056e-01 1.000000000000000056e-01 1.000000000000000056e-01 1.000000000000000056e-01 1.000000000000000056e-01 1.000000000000000056e-01 1.000000000000000056e-01 1.000000000000000056e-01 1.000000000000000056e-01 1.000000000000000056e-01 1.000000000000000056e-01 1.000000000000000056e-01 1.000000000000000056e-01
2.519223055515808496e-01 -1.416696785639504907e-01 2.682934565213088263e+00 -1.406861858983912583e+00 -6.918482167268756866e-01 3.351553619192349509e-01 -2.921587434105447079e-01 -4.532744647123709836e-01 1.036938342236835453e+00 -1.764651130535684231e+00 -1.829069800525659595e+00 2.024559470071429779e-01 2.459710174931913351e-01 9.686172635362231276e-01 -2.167289365617355024e-01 -3.110067879712826722e-01 8.000226152162830118e-02 2.605321104360246443e-01 4.309058090221948856e-01 2.263557636495958647e+00 1.157293334855796552e+00 -8.050298766782764126e-01 -1.075356713293352806e+00 8.289838314060586910e-01 -1.487341748269770614e+00 -9.083378186869291993e-01 -4.105895480853821722e-01 1.433300708650755650e+00 -2.868421605629772331e-01 1.096262193589449208e+00 -1.812140120979220947e-01 -5.090172053973067712e-01 -9.454331218902218836e-01 4.037770081825052815e-01 -3.423580180830202990e-01 6.719406892980080981e-01 -5.029425239335443276e-01 1.455168728133456435e+00 1.842396438214042309e+00 8.731121539164704570e-01 -6.046772712655309467e-01 -9.942092358402986330e-01 -3.018145262780830063e+00 1.069332692259122197e+00 -6.752670487464892402e-01 -9.770967412630146010e-01 1.191086056176498209e+00 -5.171911398596333587e-02 -2.730324294214405145e-01 -8.671488669553159001e-01 2.550153703341417888e+00 -1.962251214250558262e-01 -5.210596156190294703e-01 1.717073746644578902e+00 -8.766687953022649082e-02 -6.963930203025636700e-01 -1.877716205693863882e+00 -1.304646050028195781e+00 -4.602783918860768875e-01 2.392379320320714875e+00 2.022995037576135857e+00 1.102638409387851626e+00 8.959277882565824802e-01 -1.085246749358850904e+00 -2.820893223914966996e-01 -7.192332273076180726e-01 -1.129953998930678827e+00 8.809991204676564935e-01 -1.143574662770499462e+00 -9.011499999740094635e-01 1.119343112999697576e+00 2.585273838910654653e+00 -1.350044637252276081e+00 7.047701673847766024e-01 -1.422913701419832755e+00 2.998661187940412920e-01 -5.077370872140250097e-02 4.807898400707831810e-01 -4.638991834024964733e-01 -2.226865938144742874e+00 1.312378338049455584e+00 -6.142924777879469334e-01 1.142553040882399396e+00 3.236427580604045451e-01 -5.990646523575524629e-01 7.956519105451373974e-01 1.927736625845225982e+00 5.747167414271540098e-01 4.454658663529131868e-01 5.310140405505707761e-01 1.017784966445948180e+00 -1.251422531953396033e+00 -3.023712058680395054e-01 1.686706525964044356e+00 -2.205195831436321807e+00 -1.096024088519759188e-01 -5.532924669736370982e-01 1.741660143598540156e-01 -4.001821567312276867e-02 -1.638114947739905070e+00
-6.108966523497105783e-01 -1.086989562309677693e+00 -1.022101904037536757e+00 1.848016761919243800e+00 2.020884182535245266e+00 -5.270081039282301649e-01 -1.004742249902429885e+00 -1.120417250230598460e+00 3.176973181969859894e-01 5.662569591287341247e-02 -4.850844783027676715e-02 -1.578773511061670465e-01 -1.923129899296956991e-01 1.102168987084634955e+00 -3.002829892049794780e-01 -5.965611616872907447e-02 1.931668621414927234e+00 2.515498780424022529e-01 -1.620325215912216121e+00 -3.906153018492188322e-01 2.113058188896829837e+00 9.478055221433938637e-01 -1.378065402714681698e+00 4.046864776671807440e-02 3.950817703975625372e-01 -1.168559272997754528e+00 3.495196289349103980e-01 -9.368562340602996918e-02 1.009898048328590203e+00 -1.504457385804627734e+00 -1.302589235331334860e+00 1.780238531117650069e+00 -3.208421112071745962e-01 -3.644866174628209055e-01 2.486868443159229725e-01 -1.262071629737992806e+00 -1.287159160917184630e+00 1.310667546241181203e+00 -1.045512972655628703e+00 -1.653394992438069977e+00 2.847218508065387343e+00 -1.789280269597192663e-01 2.025162487382320631e+00 -2.027968866752033250e+00 3.648943057205847329e-01 -3.523677355294076996e-01 -5.709812193966516958e-01 7.078065868537739558e-01 3.149461298400429432e-01 3.038595295664224261e-01 -1.185636156115755790e+00 -1.250092895675551485e+00 4.367621601961948485e-01 9.935600498836271166e-01 3.158822838622831752e-01 2.580938339458998532e-01 -1.138714569446313218e+00 2.388536536814211964e+00 1.873748108988897876e+00 -2.493154848723128925e-01 -5.451970725522030659e-01 -1.522107988065704687e+00 -2.756071766767606568e-04 -5.525065964991391354e-01 -2.832800125471069963e-01 -3.215339696186712559e-01 -1.722462816307985367e+00 -1.462306004737147669e+00 1.647779161232410861e+00 1.129351894108200360e+00 2.450541307554436887e+00 -3.511586243087386899e-02 -1.033707229345032008e+00 4.925400351473445126e-01 6.764636352224137061e-01 -3.588106136720239370e-01 3.624344125172244135e-01 5.455849720778364054e-01 -1.203969062969411308e+00 1.673469213284677903e-01 7.113714790405947785e-02 1.274540297204916905e-01 -3.476739921357867025e-01 -5.936886325226179428e-01 -7.373933069681731789e-02 1.407524629946704353e+00 9.434024489047095063e-02 2.600145116441939797e-01 -2.531794816007237880e-01 5.200028426841707407e-01 -3.793758559406466835e-02 -1.068397247490308732e+00 -4.957059168483375633e-02 -1.639296071966185986e+00 -4.911340659768689276e-01 2.431632583745654830e-01 1.435583254073221626e+00 1.552205787108525303e+00 7.430273806672145209e-01 2.010586518284439295e-01
-6.152686802752531658e-01 -3.547005177977451407e-01 -1.037239860336611974e+00 -1.895321558869033529e+00 -1.197289359475476100e+00 -9.807734349515127015e-01 -7.847421091169816121e-01 -1.836993575719283317e-03 1.654797030302424532e-01 9.920858643796240939e-01 -5.679574200163690634e-01 3.196349934502255019e-01 1.716419682083312193e+00 -8.477884769701556078e-02 -5.952266829078448063e-02 -3.102366540273476248e-01 1.381523121983294411e+00 7.669941813444378642e-01 5.950547472101344049e-01 -2.744783417095886247e-01 6.900412180886948965e-01 -1.243677819486734171e+00 3.661502250336639008e-01 5.482414703214649049e-02 -2.227260344171541895e-01 -3.647687892271553878e-01 -1.617300713675982604e-01 -5.123571281649523801e-01 1.197683182551542366e-02 -5.248900169954256317e-02 -5.639700097537319046e-01 -2.339542483908817694e+00 -1.926392769051308851e-01 -6.457500514364908906e-01 -3.827962238122156191e-01 2.522101485877937255e-01 7.337298621094563433e-01 8.911102083712755251e-01 -2.207670585528499069e-02 8.363334216219127093e-01 1.108687166976709548e-01 1.120322627413274708e+00 1.467189453263562982e+00 -9.830464680338429906e-01 -7.774356353340784731e-02 -3.458681877840044105e-01 -2.727300664761237448e-01 1.830316338927591713e-01 -1.418119894836715744e+00 1.197902417751519399e+00 6.254099470580700704e-01 -5.511545131604074221e-01 -7.782807864584617707e-01 9.533314286524631476e-03 -1.150714431300376706e-01 9.950147024621462943e-01 -4.616961511853451966e-02 -1.103062069891079133e+00 -1.157877115291128467e+00 8.509723476052830637e-01 4.051638934811095383e-01 -9.234717675309689344e-02 -8.135187356530876324e-01 -2.366957430403407781e+00 4.069008247731185635e-01 -6.659552122192788914e-01 -6.280708499171114845e-01 8.895110313498609811e-01 -1.648951072521977590e+00 -7.790055947285201565e-02 -1.218367424064308091e+00 -9.616972079939640761e-01 -3.420978262404325565e-02 -9.845116151446166308e-02 2.022074564273906583e-01 1.389616370756660668e+00 1.917226767881859750e+00 6.634834730371790279e-01 -1.436912378610422925e-01 1.882441395372359771e+00 -2.308104273171529996e+00 -3.514348372992646130e-01 2.612217526061251238e+00 1.895245397258811026e+00 1.388079602893276254e-01 -3.954157783366378798e-01 -1.004279445234042223e+00 5.517450845772455814e-01 6.100662595585770731e-01 -8.139133011847207166e-01 3.046360576406965670e-01 4.721675699922909253e-01 8.112444773922387053e-01 -2.739164753747302949e-01 -1.119589366992125079e+00 9.417644655858901925e-02 5.949434115402008061e-02 -2.459961384344167834e-01 3.516059496871302148e+00 -8.156782816990808538e-01
8.998837534107020919e-02 -7.954310675517921314e-02 9.481581459310268745e-01 -9.399198328641353295e-02 -8.743568713532643422e-01 -8.496452767958100338e-01 -1.019498135151436280e+00 -2.808187184131236691e+00 8.676188439921606044e-01 2.065296029059166205e+00 7.947665235163855479e-01 5.820884687805761848e-01 9.327099761389791022e-01 -6.246972242316989332e-01 9.605900952335826304e-01 -1.190300771115657463e+00 -1.879011114301241792e+00 -2.497362872396441391e-01 8.870532263134959239e-01 7.914014558536490718e-01 -1.052598168251084321e-01 -4.085879041871896544e-01 7.205168254653532278e-01 -9.107003060186901200e-01 -6.106340478923961701e-01 1.722256487140203740e+00 1.009634039239328596e+00 -2.461926289533386825e-01 -2.443653465537981795e+00 3.771294723897317125e-02 5.108590123348738521e-01 -5.938681951123344627e-01 -4.736737483872250909e-01 -2.117864259098375612e+00 -2.865609095855372157e+00 1.345800616461876598e-01 -4.172112496896847045e-01 1.537069873702788803e+00 6.278423397455135113e-02 -6.273069266000769195e-01 -2.289370520704055167e-01 1.221268162026779125e+00 5.775203466630008942e-01 -1.722293395295428908e+00 -2.067261435078287524e-01 1.484322117192499402e+00 -5.034867326319494296e-01 1.106185118970702597e+00 -1.563230725541898680e+00 4.138177795448055307e-01 1.881885140565543041e-02 -1.455408354516453118e-01 1.331042227281293566e-01 -1.465101408309572306e-01 -5.173434292847796101e-01 1.331894732117319347e+00 -1.860114734904070311e-01 2.880433618561441533e-01 5.901642766180988930e-01 -4.430782080803514766e-01 2.576168833453170159e-01 -2.640100747630049205e-01 6.931335849207832522e-01 -2.823955342950585368e-01 -2.272784882577534304e+00 -3.985756197044122429e-01 -1.121483840382823338e+00 1.115725103949358976e+00 6.528195434092268212e-02 -3.809168723921133592e-01 2.156183778629021663e+00 5.974476185709607368e-01 -3.216837791878205399e-01 -2.499437271713593756e+00 -1.033341703048122229e+00 -1.171669604652595620e+00 3.899387461031225133e-01 2.267567414184612051e+00 7.371895601176314816e-01 8.639805110698770552e-01 1.620762418729624565e+00 -1.138847956551243268e-01 -2.081365340240863837e-01 1.090981621610964236e+00 3.944510509548946886e-01 1.880713864219084375e+00 4.939265336081260505e-01 -1.024224959120224598e+00 1.168576348982053092e+00 6.114694276254424299e-01 -2.835328082350221379e-01 -1.468706279613879728e-01 8.685604856647175520e-01 -8.777030988595298233e-02 1.342714792656055867e+00 -1.096864575072723724e+00 -5.943038957394045640e-01 -1.161990686058122169e+00 2.933742007313071554e-01 1.589764703508964871e-01
1.447834231195143984e+00 1.534664855016846907e+00 -5.570672146482056331e-01 -3.467537824397395330e-01 -8.504963274139908380e-01 1.717462721229834122e+00 1.250889779418536740e+00 -3.566139473072381105e-01 -2.098068255970211848e-01 8.182035899566794113e-01 -2.537961528497103755e-02 -1.521299410540941088e-01 1.575115756662550881e+00 1.264148265054094722e-01 5.888651719580825228e-01 1.025685437235546393e+00 -3.883159015146389614e-01 -8.181212255738913308e-01 -9.791042688138322792e-01 -1.101840142487956198e-01 1.112606651239678612e+00 3.385210231767616373e-01 2.151744825676090933e+00 -7.499521965441163784e-01 -5.703786843263801698e-01 9.913012530381642984e-01 8.626669551966805738e-01 5.046835196769218213e-01 -2.310622514809894668e+00 -2.710299926636556833e+00 -1.056680774529008104e+00 1.717943299226556975e-01 4.242555007236674114e-01 -1.796558255550008421e-02 2.832581811256474902e-01 -7.644196721401821937e-02 -2.839105807836390660e-01 6.559152400058601007e-01 -4.575888906588857497e-01 2.301702728984625634e-01 -4.900617147059658785e-01 -5.369964313097934649e-01 -7.581680009560239908e-01 -1.327022322510794439e+00 -3.662024687237566134e-01 -1.093122364305205485e+00 -2.592499275240487955e-01 1.603355361526793033e+00 -1.186142462528851915e+00 -1.964077306151261304e+00 -1.383836441628636171e+00 -1.130763848382461134e-01 -1.079199684471160214e+00 1.219920698135094961e+00 2.299455228635107318e+00 6.460150394176665811e-01 -4.200958496689567445e-01 1.036971447618635134e+00 2.298658133041077356e+00 -3.564333645702447706e-01 1.053467896002205917e+00 -5.350468125864704660e-01 2.875228386131254421e-01 -1.040179892791650573e+00 -3.150055579337187606e-01 1.371647130148692328e+00 -2.530861242723269289e+00 1.491046392626943051e+00 -1.111593538421956406e+00 -1.907112274223092263e-01 2.083615424116378456e+00 -1.017717629532558066e+00 5.151131030609512607e-01 -1.463688607046299994e+00 1.441389287737877556e-01 1.807355747247941347e+00 1.739241777648523390e+00 -6.734197957670807755e-01 7.584073924121612631e-01 -1.799479400958446274e+00 3.526144898364406144e-01 -1.504258762797375359e+00 -6.923001466315878982e-01 -1.328262526753445805e+00 -1.828478272652454550e-01 5.800346919983938587e-01 1.313054425865380903e-01 1.440646183613838449e+00 3.699051882258027057e-01 1.193436462277170040e+00 6.683217030433411532e-01 -1.447002467210673382e+00 -6.965579205214935676e-01 6.499036579733485919e-02 2.915400254183444506e-01 -1.655167465633008983e-01 -5.281886251992294889e-01 -1.415397782220319867e+00 -7.374964231604148601e-01 2.049134325972689907e-01
1.459520399332921547e+00 -1.198238617426149455e+00 -3.674113033265039019e-01 1.302999514117665070e-01 -1.683101270830017704e+00 -3.513462290859382664e-01 2.229760328046761358e-02 2.898805970387829500e+00 5.225668189041193790e-01 1.752167742804231487e-01 4.702459705457585071e-01 -4.388786687516228746e-02 -3.957907869159993375e-01 1.081392671633743197e+00 1.692202211579983295e+00 9.023307574431265188e-01 7.059990099866626512e-01 -2.962684358092776415e-01 -1.860449761612992914e+00 -4.412793164920812174e-03 3.499622500888866505e-01 1.197307255505090762e+00 1.078598503839070188e+00 -8.401341173886840707e-02 -7.013757450873341348e-01 -1.041684913935791545e+00 -1.074256286675213223e+00 -1.901385453207833087e-01 -4.739879888885812353e-01 -1.364291135518020281e+00 -1.374058224050536570e+00 -1.271731251241926985e+00 1.413957275998287133e-01 -3.418773123305119954e-01 -8.962125134809578730e-01 -8.806367222687717655e-01 -1.218624526951726628e+00 -1.468833704403331275e+00 1.078453480860895874e+00 1.427094533138806298e+00 6.718367599698042980e-01 -1.047061570996914576e-01 5.615644311455288834e-02 9.521484012554995435e-02 -1.790642714042326222e+00 -1.582682991109058523e+00 -4.053410921999276995e-01 9.635667996353238784e-01 1.796829840464153338e-01 -9.116782552233546610e-01 -6.048696960077988294e-01 1.503418046920446338e+00 -7.435416113799453441e-01 8.445682105805698558e-01 1.934164231584756033e+00 -1.781032018096718073e+00 3.908153641486946661e-01 -1.062322121958971577e+00 -5.790369475597103577e-01 -2.174822869028212868e-01 -3.677742347173801885e-01 -1.364499688635807950e-01 1.900455811396412342e-01 -8.395918036484325553e-01 -4.219548628372385424e-01 7.416722981102680246e-01 -7.957146934354926149e-01 7.894998732329393532e-01 -1.866305422994199548e+00 1.225793866857966652e+00 1.650461138704042430e+00 -4.942044929608929160e-01 2.275684204695550550e-01 -6.792685369587057043e-01 4.259106650687887741e-01 -8.569738380055885729e-01 6.382320032797247356e-01 5.544856010669241275e-01 5.338630425809854918e-01 1.726699304110589084e-01 1.257732035207475840e-01 -1.163650372573423963e+00 6.346426640101678895e-01 5.417635475356210595e-01 -4.529718212581640424e-01 3.005575654689793264e-01 2.558061309444500941e-01 -1.154377729105773076e+00 1.148386756327273384e+00 -2.300537984956790571e-01 -4.928466189842604650e-01 -4.342696445419275686e-01 -9.828860559956847931e-01 1.729794274191495340e+00 3.950577117239343905e-01 8.547473083993386567e-01 -2.422839838404713675e-01 8.153673927449517356e-01 8.441177156136964177e-01 5.263626319630217987e-01
-2.309442094105172427e-01 -1.309322652512083796e+00 -9.026720403889664235e-01 9.766991459431978440e-01 1.056590518077224816e+00 -6.425953067697068866e-01 6.872545248440576904e-01 2.679019552430311202e-01 -2.371019559253870757e+00 1.390170234521661108e+00 1.974072677191851533e+00 -6.531628737508270444e-01 -1.073087868143076801e-01 -1.154262590092401508e+00 -4.485500773788838047e-01 -5.026646359863170543e-01 -2.363047566111952519e-03 2.444538211974615349e-01 3.931672870549358656e-01 -1.384434618494695624e+00 -4.890908405093973843e-01 6.174811157043693655e-01 7.820723534053743986e-01 -8.552474603844876233e-01 1.824915841852777110e+00 1.534237183983130803e+00 6.841529899506955115e-01 -1.529539339699531375e+00 2.492857675935243045e-01 6.675985445223096448e+00 -8.806028856940836036e+00 -6.249062945215681786e-02 1.406093051118025627e+00 -1.476231246035577094e+00 -8.516792119948913831e-01 -3.791713628002048031e-01 3.001128348201162477e-01 -8.784261740426149156e-01 -1.235908488611037637e+00 -6.999543995098053140e-01 1.750742631437035013e-01 1.264531222585862036e+00 4.473476464553965970e-01 -4.044306561647453280e-01 3.196667071856953868e+00 2.936426290946682283e+00 -1.204992374894320539e+00 -4.865274556510524318e-01 1.318040051753994329e-02 1.676581579146423362e+00 -1.063514952869407448e+00 8.325413911325389549e+00 6.753092803515399201e-01 -1.388795743649121395e+00 -2.103488905345254345e+00 1.242863765487402794e-01 1.818392763113911847e+00 6.573553455513733157e-01 -1.095269895350986733e+00 -1.139778202651093197e+00 -1.110083067756511221e+00 -8.160874147100155795e+00 -1.159971192091289627e+00 3.586236898394325467e-01 3.853823484431286861e-01 8.885662616006949621e-01 9.371609489036397678e-01 -8.033509837945616017e-01 3.338906299950005763e-01 1.414421918563137037e+00 -4.120163215390766909e-01 -1.218298096786055495e+00 1.654388262271693666e+00 -9.012477150005284710e-01 1.627137116888832002e+00 -4.704337950763788356e-01 1.200846924707007768e-01 -8.611355477910490608e-01 1.043005978806498035e+00 7.429138493083196071e-01 -4.414613766332673439e-01 2.898794893038124432e+00 -4.446870987918699059e-01 -2.706371641563312114e-01 1.822936602760423908e+00 -7.235100624224972687e-01 -9.884586700219700761e-01 -1.689485323073584011e+00 -1.204772828273127594e+00 -7.258760645242943177e-01 -2.234653297911745273e+00 1.566194781886146359e+00 4.341104250572969669e-01 -1.227699874016297432e+00 1.198113430177036198e+00 -6.101897309776951328e-01 5.031013971741870039e-01 -2.294074167211239412e-01 2.146082783559958435e-02 1.252861088084656016e+00
1.728530567618801417e+00 -7.047306878665446361e-02 4.249748655480811155e-01 -7.730782577870451977e-01 -1.675460020047853993e+00 6.972460913185321019e-01 2.787122961124283149e-01 -3.118856340732345522e-01 -1.505854556433978253e+00 -8.675089265115540349e-02 3.542767307246479924e-01 7.674897764200441230e-01 -4.345500596160450923e-01 -1.243365676984107715e+00 1.823076361628682251e+00 1.541500492358301333e+00 -9.055246077820648942e-01 -5.012942675655043256e-01 1.625340096287028580e+00 2.631346099596094945e-02 -1.051910428900275862e+00 -7.087155561421825123e-01 2.096009411800391575e+00 4.570894744959519418e-01 -6.414640216845117759e-01 1.381600240449399664e+00 -2.640385789342102107e+00 -1.558864120316378055e-01 -2.099868000116650535e+00 -1.932075002113938211e+01 3.268950117900353547e+01 -4.765535675174116248e-01 1.169543376421083511e-02 -6.226123771698343079e-01 -1.275007722524759801e+00 8.256194698273791044e-01 1.353623133463320860e+00 -7.519108028910653774e-01 6.512903088100909788e-01 3.648196704294378812e+00 -9.643407726609604103e-01 7.245081415110008471e-01 -3.087854856628705069e-01 1.076909881567192473e+00 -1.962040433228235736e+00 1.491072667678456698e+00 7.792424285711619936e-01 -2.097201732199409641e+00 -2.539477428217800647e-01 -1.050784514081202214e+00 5.701979049854939419e-01 -2.661080022471239914e+01 -1.033978492924926273e+00 -8.312217234624375006e-01 -1.806405370473589400e+00 -6.707098116788484665e-01 8.192578946965985986e-01 -1.013926734579425615e+00 -3.588138277339992799e-01 -1.648119374207819843e-01 1.394929303623051453e-01 2.191945023011980354e+01 -2.140288238934163201e-01 2.403746721717077151e-01 1.062658260288391388e+00 7.200931846271115822e-01 1.596105353737736321e+00 -1.440391650217691444e+00 -2.232279241989127971e-01 -1.473930171756097085e+00 -7.596718035633187593e-01 -1.773319300671637455e-01 7.945463757236669311e-01 -1.426498606168092209e+00 -1.043716551658997016e+00 6.521036513990923211e-01 -5.992300922477190595e-01 -2.526582045973134072e+00 3.602982706673369950e+00 -6.313043687931914338e-02 -3.252177003177954967e-02 1.265471954046975545e-01 8.111329069666131653e-02 9.776119544780651482e-01 3.694674328766469062e-01 -1.540758008673989155e+00 -3.086917349352533146e-01 -2.396693755763152356e-01 1.248103541026813978e+00 -9.942872911108119327e-01 8.131494472967425446e-01 4.360134188352947082e-01 1.190247988664801526e-01 1.218270553919062138e+00 3.374876596645642879e-01 -2.107519498245218059e-01 -2.120043241090996400e+00 -1.700484728983242766e+00 -1.638435727009184550e-01 -6.167282364012589557e-01
6.505018195538564418e-01 -1.078301804374666606e+00 5.075410770619500633e-01 1.073298474856268170e+00 5.878052284793070514e-01 2.893448186093074970e+00 2.874575501466258842e+00 -4.015664398601666463e+00 -4.168077853899110896e-01 -7.701226399974627768e-01 1.915957145363363923e-01 -4.964328092199385423e-01 -1.892628839258606588e+00 -9.842720871397497850e-02 -1.447478905867305432e-01 1.606604123720924759e+00 -7.380795477700194951e-01 -2.347503961258153193e+00 -6.280305738868476872e-01 1.977543435189315357e-01 -3.621018301789262761e-01 1.204779284278106655e+00 -7.388222124687854331e-01 8.557890117103094108e-01 1.549729716654311973e-01 9.068172673887660018e-01 -5.932397183157677167e-01 7.350582745607553425e-01 -9.271181007973144927e-02 -4.634020636301180929e+01 8.888078182518343695e+00 9.610523406862991891e-01 -3.641695163461653895e+00 9.590829273146495026e-01 3.424559181449716494e+00 -3.027041136453906822e-01 -1.378261020542300486e+00 -7.246410545560341143e-01 4.521392870026867336e-03 -4.487137820543803945e-01 -1.596752285812813588e-01 -1.474159358922368490e+00 -2.319656150819489615e-01 7.495012858252255716e-01 -1.084609589597246737e+00 4.083611579346253961e+00 3.972913913631112015e-01 -1.087103207794965165e+00 1.922836360749773599e+00 -2.485033986603525147e+00 -4.260063187307440713e-01 -5.355323329743542082e+00 2.026400604486004564e+00 -2.651338992695635374e-03 1.684092294325559624e+00 -6.085354332160072266e-01 3.633196261206668703e-03 1.583735894727246463e-01 3.525065753905054500e-01 -7.333651679366022247e-01 -5.424373364387083951e-01 4.682794979669662183e+01 1.560941754177284757e+00 9.728423422628078576e-01 -1.530055283930945143e+00 2.490990651672357448e+00 7.602243375993584795e-01 -1.854103542440789676e+00 5.593945282413618214e-01 3.279057710550331572e-02 4.008370107067549259e-01 5.431795177989905410e-01 1.392620052495074923e-01 7.152237431169108373e-01 -7.378528225891520798e-01 -8.517950066293803468e-01 -1.503246686496934714e+00 -1.684407178921605741e+00 2.198141185535341435e+00 -7.038489894244037703e-01 9.415292447145563459e-01 1.822880833762113406e+00 -9.041548789429542099e-01 -1.737143922074597668e+00 -1.554174763742244281e+00 7.099121220305348867e-01 9.092951843169302384e-01 -9.952656540455037115e-01 -1.718886315488783456e+00 1.548275962750149226e+00 -1.551981959491199659e+00 -1.393919134264509863e+00 -2.023967855267645444e+00 4.199597825755519431e-01 7.347671646896151154e-01 -2.719003784590383610e+00 -4.540347743629620236e-01 2.047900532216656300e-01 -6.673059083817316495e-01 1.354606518005456062e+00
