# 
#                 ----------------------------------------------------
#                 Data from a 3D direct N-body simulation. 
# 
#                 rows are i-particle; 
#                 coumns are :mass, tag, x ,y, z, vx, vy, vz, ax, ay, az
# 
#                 NTHU, Computational Physics 
# 
#                 ----------------------------------------------------
#                 Time = 0.0
0.000000000000000000e+00 1.000000000000000000e+00 2.000000000000000000e+00 3.000000000000000000e+00 4.000000000000000000e+00 5.000000000000000000e+00 6.000000000000000000e+00 7.000000000000000000e+00 8.000000000000000000e+00 9.000000000000000000e+00 1.000000000000000000e+01 1.100000000000000000e+01 1.200000000000000000e+01 1.300000000000000000e+01 1.400000000000000000e+01 1.500000000000000000e+01 1.600000000000000000e+01 1.700000000000000000e+01 1.800000000000000000e+01 1.900000000000000000e+01 2.000000000000000000e+01 2.100000000000000000e+01 2.200000000000000000e+01 2.300000000000000000e+01 2.400000000000000000e+01 2.500000000000000000e+01 2.600000000000000000e+01 2.700000000000000000e+01 2.800000000000000000e+01 2.900000000000000000e+01 3.000000000000000000e+01 3.100000000000000000e+01 3.200000000000000000e+01 3.300000000000000000e+01 3.400000000000000000e+01 3.500000000000000000e+01 3.600000000000000000e+01 3.700000000000000000e+01 3.800000000000000000e+01 3.900000000000000000e+01 4.000000000000000000e+01 4.100000000000000000e+01 4.200000000000000000e+01 4.300000000000000000e+01 4.400000000000000000e+01 4.500000000000000000e+01 4.600000000000000000e+01 4.700000000000000000e+01 4.800000000000000000e+01 4.900000000000000000e+01 5.000000000000000000e+01 5.100000000000000000e+01 5.200000000000000000e+01 5.300000000000000000e+01 5.400000000000000000e+01 5.500000000000000000e+01 5.600000000000000000e+01 5.700000000000000000e+01 5.800000000000000000e+01 5.900000000000000000e+01 6.000000000000000000e+01 6.100000000000000000e+01 6.200000000000000000e+01 6.300000000000000000e+01 6.400000000000000000e+01 6.500000000000000000e+01 6.600000000000000000e+01 6.700000000000000000e+01 6.800000000000000000e+01 6.900000000000000000e+01 7.000000000000000000e+01 7.100000000000000000e+01 7.200000000000000000e+01 7.300000000000000000e+01 7.400000000000000000e+01 7.500000000000000000e+01 7.600000000000000000e+01 7.700000000000000000e+01 7.800000000000000000e+01 7.900000000000000000e+01 8.000000000000000000e+01 8.100000000000000000e+01 8.200000000000000000e+01 8.300000000000000000e+01 8.400000000000000000e+01 8.500000000000000000e+01 8.600000000000000000e+01 8.700000000000000000e+01 8.800000000000000000e+01 8.900000000000000000e+01 9.000000000000000000e+01 9.100000000000000000e+01 9.200000000000000000e+01 9.300000000000000000e+01 9.400000000000000000e+01 9.500000000000000000e+01 9.600000000000000000e+01 9.700000000000000000e+01 9.800000000000000000e+01 9.900000000000000000e+01
1.000000000000000056e-01 1.000000000000000056e-01 1.000000000000000056e-01 1.000000000000000056e-01 1.000000000000000056e-01 1.000000000000000056e-01 1.000000000000000056e-01 1.000000000000000056e-01 1.000000000000000056e-01 1.000000000000000056e-01 1.000000000000000056e-01 1.000000000000000056e-01 1.000000000000000056e-01 1.000000000000000056e-01 1.000000000000000056e-01 1.000000000000000056e-01 1.000000000000000056e-01 1.000000000000000056e-01 1.000000000000000056e-01 1.000000000000000056e-01 1.000000000000000056e-01 1.000000000000000056e-01 1.000000000000000056e-01 1.000000000000000056e-01 1.000000000000000056e-01 1.000000000000000056e-01 1.000000000000000056e-01 1.000000000000000056e-01 1.000000000000000056e-01 1.000000000000000056e-01 1.000000000000000056e-01 1.000000000000000056e-01 1.000000000000000056e-01 1.000000000000000056e-01 1.000000000000000056e-01 1.000000000000000056e-01 1.000000000000000056e-01 1.000000000000000056e-01 1.000000000000000056e-01 1.000000000000000056e-01 1.000000000000000056e-01 1.000000000000000056e-01 1.000000000000000056e-01 1.000000000000000056e-01 1.000000000000000056e-01 1.000000000000000056e-01 1.000000000000000056e-01 1.000000000000000056e-01 1.000000000000000056e-01 1.000000000000000056e-01 1.000000000000000056e-01 1.000000000000000056e-01 1.000000000000000056e-01 1.000000000000000056e-01 1.000000000000000056e-01 1.000000000000000056e-01 1.000000000000000056e-01 1.000000000000000056e-01 1.000000000000000056e-01 1.000000000000000056e-01 1.000000000000000056e-01 1.000000000000000056e-01 1.000000000000000056e-01 1.000000000000000056e-01 1.000000000000000056e-01 1.000000000000000056e-01 1.000000000000000056e-01 1.000000000000000056e-01 1.000000000000000056e-01 1.000000000000000056e-01 1.000000000000000056e-01 1.000000000000000056e-01 1.000000000000000056e-01 1.000000000000000056e-01 1.000000000000000056e-01 1.000000000000000056e-01 1.000000000000000056e-01 1.000000000000000056e-01 1.000000000000000056e-01 1.000000000000000056e-01 1.000000000000000056e-01 1.000000000000000056e-01 1.000000000000000056e-01 1.000000000000000056e-01 1.000000000000000056e-01 1.000000000000000056e-01 1.000000000000000056e-01 1.000000000000000056e-01 1.000000000000000056e-01 1.000000000000000056e-01 1.000000000000000056e-01 1.000000000000000056e-01 1.000000000000000056e-01 1.000000000000000056e-01 1.000000000000000056e-01 1.000000000000000056e-01 1.000000000000000056e-01 1.000000000000000056e-01 1.000000000000000056e-01 1.000000000000000056e-01
2.525004502412938612e-01 -1.783038262115028971e-01 2.855508574854937809e+00 -1.404447778532676772e+00 -8.515736266377774699e-01 1.504279727949224821e-01 -4.833089200516570982e-01 -1.003922077290863024e+00 1.161511651395994216e+00 -1.322513954808659742e+00 -1.628205925634802709e+00 3.011252097531199601e-01 4.244113095266378588e-01 8.237475237415091689e-01 -3.737394616460570917e-02 -5.646021680458735981e-01 -2.950225368675663540e-01 2.092962015553959665e-01 6.111796544009484577e-01 2.395243096462684296e+00 1.127462075920243390e+00 -8.741109779604335772e-01 -9.192120902454151699e-01 6.287318264297275805e-01 -1.573405214260738649e+00 -5.314271375321101276e-01 -2.170995641120888053e-01 1.352527153403025650e+00 -7.609090319141238457e-01 1.077558255357345285e+00 -1.180408184879039590e-01 -6.290230777824867836e-01 -9.899605064518904873e-01 -3.854500096494929695e-02 -9.005066421531133791e-01 6.897590422377342101e-01 -5.865399347610625869e-01 1.744542082358713442e+00 1.831406537014999225e+00 7.431483598415952185e-01 -6.468687168006541643e-01 -7.262305193929227132e-01 -2.893518880572641727e+00 7.178343651753225085e-01 -6.641965923088406498e-01 -6.418137634181575457e-01 1.066087968486021165e+00 1.585550373702534488e-01 -5.836779078011590238e-01 -7.577878787720502274e-01 2.533053071506545351e+00 -1.987326758533084770e-01 -4.874251685229220032e-01 1.661183826280989262e+00 -2.147511177897736545e-01 -4.193461170216430389e-01 -1.879547539225884467e+00 -1.235226437519927334e+00 -3.588399478885082039e-01 2.280254106739314945e+00 2.052640252171366253e+00 1.049693434089463473e+00 1.013407010911408612e+00 -1.134921378604854647e+00 -7.190313839810452690e-01 -7.650359034138970449e-01 -1.338971972652270637e+00 1.082014247815830554e+00 -1.126339940926205596e+00 -9.463519911360342984e-01 1.542787986760993491e+00 2.681916212038453651e+00 -1.380972313043518307e+00 1.844651690241539688e-01 -1.596610138855877992e+00 6.165260256290205909e-02 2.918530399685892798e-02 9.066663302995960905e-01 -3.134413501034111760e-01 -2.039323232673854402e+00 1.627829837704643845e+00 -6.093117807669183872e-01 1.092665738149614318e+00 5.371939153250367971e-01 -4.862717995001645810e-01 1.156299584600644303e+00 2.007007076762808762e+00 3.479527902355057933e-01 6.536519777527298736e-01 6.382854389882043344e-01 9.190341409505053960e-01 -1.234532696191617651e+00 -1.221448079021087568e-01 1.644933937850624472e+00 -1.911648825549792319e+00 -3.334481369189817856e-01 -6.640802072785604304e-01 -6.406368117077593238e-02 1.901243587764546092e-02 -1.578265042143723651e+00
-2.842382857594500933e-01 -7.761866108828948674e-01 -1.125043947015984536e+00 1.761323108677390392e+00 1.830846683214758963e+00 -1.741716473380252872e-01 -7.409531824934166844e-01 -1.165112769791043723e+00 2.450192116159988776e-01 2.166638772652983158e-01 -4.241249974853469190e-02 -1.700928904512468143e-01 1.173677387399119920e-01 1.102728607046830511e+00 -1.521484594377066069e-01 1.644355051645318144e-01 1.836107883053687662e+00 7.626855762364628810e-02 -1.782291001193019531e+00 -4.115670142174004398e-01 2.315301798015749313e+00 9.980285608918648688e-01 -9.188231773621491350e-01 -9.923172067450766742e-02 2.651341079504636600e-01 -9.380879373488220097e-01 4.734073807776414955e-01 4.373812725960806586e-03 5.033270566946007607e-01 -2.235652927908849730e+00 -1.378765765549329725e+00 1.805351927970722858e+00 -2.280818445115101734e-01 -3.810984436378568319e-01 2.704187587022097716e-01 -1.260734748455972998e+00 -1.311366509594759089e+00 1.425868371067569029e+00 -1.125461823744711376e+00 -1.560745784719183238e+00 2.730147306973099930e+00 -2.649289188995879174e-01 1.867275319530310007e+00 -2.272015165206414888e+00 2.493235529112360072e-01 -5.326762962768462062e-01 -6.068492631731453590e-01 9.835622870877706037e-01 7.354801004098927841e-02 -1.069847161150975917e-01 -1.450903431823070910e+00 -1.295866315522013590e+00 1.973778317139328886e-01 1.221799214445665305e+00 7.312391971274311286e-01 3.648399081204437011e-01 -1.205383019261034416e+00 2.575721008138489587e+00 2.314554230895019771e+00 -3.233289764386454435e-01 -3.326227633430198782e-01 -1.388017610144138825e+00 5.334166065031972076e-02 -7.554569649852107549e-01 -3.180615084493243483e-01 -3.188839540397027383e-02 -2.201735060170818326e+00 -1.170557624072379399e+00 1.424397748056092761e+00 1.061290356608690866e+00 2.852942473503067955e+00 -2.411516811988296538e-01 -9.151167450085938571e-01 1.761006423963718537e-01 6.858966896425667814e-01 1.339627339666783767e-02 6.984336014905014878e-01 3.722888657370728160e-01 -1.012409005009399454e+00 -1.928504591801341039e-01 1.406426815977268596e-01 -1.600007715846694101e-01 -4.841225914565111532e-01 -8.446826978391683838e-01 -1.019750614956261014e-01 1.493865378858492354e+00 1.142130349191312344e-01 5.330353375190899357e-01 -1.576432169429478891e-01 7.381399056843599427e-01 1.119724373063911843e-01 -1.339755650831091049e+00 -1.815566955694058460e-01 -1.602919142259716878e+00 -4.253237421199700385e-01 2.055833292613290508e-01 1.286434768370655402e+00 1.233196632062327991e+00 5.926102090670470890e-01 2.285582389266577752e-01
-3.257067605370536079e-01 -5.939268763301420728e-01 -1.101194798893555538e+00 -1.850967769997035939e+00 -1.521143844965979319e+00 -9.931217517597566991e-01 -7.276924698507818423e-01 5.512916271843557592e-01 2.640027110030980229e-01 1.008805218814650795e+00 -4.698727133292391334e-01 2.990218232437784618e-01 1.597969615080106820e+00 1.285528151235359184e-01 2.758376899548107275e-01 -1.184222412750771392e-01 1.507895905798406044e+00 6.633023175228577317e-01 2.120705447298475987e-01 -2.712696470124261183e-01 7.526712633602002933e-01 -9.809272284028806022e-01 5.563245875033618892e-01 5.303590988992677724e-02 -3.644883876266315492e-01 -5.541304718290922526e-01 -3.655329822815623353e-01 -5.364972336007749476e-01 -8.683820864569262443e-02 -1.098355821039624786e-01 -7.332214502212515139e-01 -2.575011457446717333e+00 -1.929886625292155655e-01 -6.778718911315786411e-01 -4.935740058579547451e-01 7.091142501736109882e-02 4.599783657791004510e-01 5.831626703872682116e-01 1.921237504212434943e-01 1.102475655755981165e+00 2.420040121484467732e-01 1.065802764786799806e+00 1.473546414635833246e+00 -9.496263451575435166e-01 -4.575403297059638663e-01 -6.246905037865059240e-01 -3.442698774115202642e-01 3.549084810119283451e-01 -1.340271791385047040e+00 9.732969102206473488e-01 4.965165006612307641e-01 -3.038663843529197939e-01 -8.756048885144096516e-01 1.789986181813366384e-01 2.774555743599311231e-01 6.147079804069663922e-01 3.189507140119166723e-02 -1.311831867946817720e+00 -1.268123862330831519e+00 7.918273936800577228e-01 3.230949933743123559e-01 -3.227636695125091770e-01 -7.448695001205926092e-01 -2.515749052741350411e+00 2.868820545908117858e-01 -4.619963136618935873e-01 -7.754531758587563939e-01 1.022097978883278468e+00 -2.007857071452431530e+00 1.630078265247481284e-01 -8.816691461404766450e-01 -1.049569891680932621e+00 1.587582711014507569e-02 -2.169951270866750936e-01 2.739897442551462170e-01 1.192148232950514863e+00 2.016410006045639580e+00 7.336355346851837211e-01 -3.493684709075495221e-02 1.902585787600415967e+00 -2.264902575545260088e+00 -5.484728765741969658e-01 2.721139955867225346e+00 1.974955073590205057e+00 2.292624106846766555e-02 -3.217133653195911602e-01 -9.360007935070755458e-01 3.107514673474113254e-01 8.062422795478337845e-01 -8.305373134048881223e-01 1.825238409172476872e-01 3.633003966101339133e-01 5.725871616784311557e-01 7.733023659978763287e-02 -1.024732160991520979e+00 2.264950610009228982e-01 4.626243236427527231e-03 -7.782947526742647892e-02 3.671817173008970148e+00 -6.804596587219959858e-01
-1.359483888120640860e-01 -2.949787507137300313e-01 7.818698985791584510e-01 1.174125544984676861e-01 -7.651536125397282451e-01 -1.017560281907374575e+00 -8.991956112054501071e-01 -2.720477319374797087e+00 3.572216156266610487e-01 2.360888199120379394e+00 1.228194287279800179e+00 3.729265601038035949e-01 8.369099463474128919e-01 -8.163294428779688250e-01 8.494925525542049716e-01 -1.292218053673428013e+00 -1.866716355690477558e+00 -3.000654267964214528e-01 8.982645823060242396e-01 5.294340033957438685e-01 -1.891434922213802716e-01 -2.807508755584491866e-01 8.877237070067042213e-01 -1.116438144555838008e+00 -2.442554205465624073e-01 2.051817794512045712e+00 8.770043955660471457e-01 -5.691942294646039624e-01 -2.247309090321444547e+00 -1.472475833572951531e-01 2.545237634704651253e-01 -6.058932771713412269e-01 4.592030257938204546e-02 -2.267791332476979171e+00 -2.501495964627990620e+00 3.885523974409910153e-02 -4.507163902006467437e-01 1.352787832936116041e+00 -1.685529932231340788e-01 -6.634849543371716951e-01 -1.921149654694855602e-01 1.438352649230328462e+00 6.700014092356376683e-01 -1.787425099426721786e+00 1.396356170562364218e-01 1.842023817726687440e+00 -7.488306048662711767e-01 9.934071904222047111e-01 -1.530181443023021171e+00 6.649068524438397354e-01 -1.885777484487094202e-01 -1.903617694805825530e-02 1.702145427830873692e-01 -4.048200635576589268e-01 -6.642583850923305944e-01 1.465968860814647279e+00 1.637700339078965728e-01 3.991974819508971595e-01 4.639604668499396900e-01 -6.811776448282649277e-01 4.031259695934841236e-02 -3.446380572932813968e-01 4.922751727923456166e-01 -2.156890246599504901e-01 -2.053645881212102786e+00 1.036839372171915047e-01 -9.813668797607284500e-01 9.033496673591502324e-01 1.054376207513891689e-01 -6.721348201924083610e-02 2.080139776972379728e+00 3.752486123797655893e-01 1.339442439323774645e-02 -2.714550349421629427e+00 -6.997333438980617437e-01 -1.195858939629484752e+00 4.066172946985966430e-01 1.980329268550038435e+00 7.641044978528667153e-01 1.010896052837716219e+00 1.532644459153807981e+00 -6.572173748377836688e-02 -2.883651052960214400e-01 1.046747659666776187e+00 6.777578255675824614e-01 1.724564212700287591e+00 2.970995200277741777e-01 -1.232570266286329375e+00 9.025910016467676433e-01 4.580148401049438101e-01 -6.612380890873663652e-01 3.073141384126718001e-01 9.320676930037165020e-01 -3.190004456073236017e-01 1.601468701173068165e+00 -1.121230556303322023e+00 -5.170108891643707683e-01 -1.221159967791291656e+00 2.967254391537664238e-01 4.595648440599450768e-01
1.753166382584138150e+00 1.647686386988111096e+00 -4.724237070848749664e-01 -5.203922139704320049e-01 -1.027624144511049220e+00 1.780306211518393855e+00 1.417737345237955804e+00 2.583560828068764970e-03 -5.038194397438580108e-01 7.697076634494958158e-01 1.181943776645456023e-01 3.960993476601492452e-02 1.527726081881442877e+00 -1.288586782377610929e-01 8.682610876364007524e-01 1.111453575718358566e+00 -5.664972182506283760e-01 -9.396682506897533482e-01 -6.410954866124553009e-01 -9.617746749415931329e-02 9.135453224038945219e-01 1.451972953647706621e-01 2.286164557863347380e+00 -6.398716961070370912e-01 -7.526780583727290530e-01 1.362359349303366773e+00 4.088995413470877804e-01 4.769748981070489058e-01 -2.760697406215976812e+00 -3.892957914513819784e+00 -1.044339251702475907e-01 8.027718641024805812e-02 5.456778557786511330e-01 -6.552551214106219768e-02 -7.484088979169888078e-02 9.433434097882802127e-02 7.313160867754020522e-02 4.909155154350621775e-01 -3.489619650422805530e-01 6.229581320888487594e-01 -6.804598421897439797e-01 -2.548815063722464913e-01 -8.209908589063074080e-01 -1.113816534030723338e+00 -8.066063391907886126e-01 -7.304147654691642844e-01 -9.794590701967094415e-02 1.153752057961793920e+00 -1.223626560718682477e+00 -2.189761370005614882e+00 -1.267788036773993321e+00 -8.699698232137217935e-03 -1.306188205099344746e+00 1.068842640761237472e+00 1.867104367858702485e+00 4.074502563341824146e-01 -2.423332195200208206e-01 8.376289522454345438e-01 2.096267936919292474e+00 -3.786911685823579621e-01 1.066789380712401814e+00 1.163465091365429416e+00 2.464787290755033888e-01 -9.879102410802390599e-01 -3.754972573495121008e-02 1.518114378957845734e+00 -2.280726727313608482e+00 1.486876149927962798e+00 -1.114141028019025592e+00 -4.916935115056060290e-01 1.944307637312195025e+00 -1.037972420000395468e+00 6.684995509504961797e-01 -1.684875800023912351e+00 -4.504517559153759648e-02 1.891583551524357754e+00 1.622608359232512232e+00 -9.937558512603780203e-01 1.118615300108925625e+00 -1.798066846069289015e+00 3.415206577534429244e-01 -1.341628489325800144e+00 -6.712873004390956799e-01 -1.195701100754434920e+00 -6.439021779016387836e-02 2.960933772220059601e-01 6.770753182533732761e-02 1.236556453623423701e+00 5.677553103285075675e-01 9.858524079456477685e-01 8.014594683638234240e-01 -1.188819114645916830e+00 -5.871405224820979152e-01 2.981978236317620601e-01 3.717401201115085874e-01 -2.664081420951323609e-01 -9.686561428896617310e-01 -1.791781188967915828e+00 -7.650739538882588286e-01 5.901756094236528666e-02
1.457356450579725404e+00 -1.129199662188419273e+00 -2.750388589470458278e-01 2.950018516010973757e-01 -1.564009345959010311e+00 2.137934354658506952e-01 5.624616071877847068e-01 2.732660366571104671e+00 4.535405601138806642e-01 -2.569049496851157077e-02 5.132749327250685223e-01 -1.710298293475126796e-01 -7.811175107785320870e-01 1.052880317000046917e+00 1.652924732056700208e+00 9.536098577750219407e-01 5.569437817650773059e-01 -7.267997586179668623e-01 -1.964244492991078506e+00 3.697835477043082131e-02 2.762134211359494329e-01 1.428354113187730423e+00 7.606576397995915562e-01 4.978083631109837814e-02 -7.474113235070024563e-01 -8.734052010262343124e-01 -8.987714739641631256e-01 -5.621991157733148559e-02 -5.324810498441858719e-01 -9.658198028717150663e-02 -5.976401025218212038e-01 -1.084829172002562458e+00 -6.809557708949891264e-02 3.175179921028403740e-02 -2.202034709753818431e-01 -9.310571745321629678e-01 -1.504287122954113265e+00 -1.611594667831026895e+00 1.056542476054573410e+00 1.225686563343250768e+00 6.393175624420984748e-01 -4.891788874324939362e-01 6.254368577232086515e-03 2.362489689002671145e-01 -1.978001941748511738e+00 -1.248601630701483778e+00 -3.024757879552762430e-01 7.597796289559319849e-01 6.205421248108055066e-01 -1.282999802471145312e+00 -6.802001757153208761e-01 1.187245640000393010e+00 -2.198107911792248348e-01 8.561206137498991176e-01 1.909556360010755460e+00 -2.077619631236516717e+00 3.892440564222378052e-01 -1.023237211936736335e+00 -5.187695232515624477e-01 -3.797901628161415299e-01 -4.406152701604582611e-01 -1.267637450319274883e+00 4.960753982037189869e-01 -6.510088257145042467e-01 -7.713527077599917625e-01 1.239668302867452443e+00 -6.895841505841944219e-01 5.613097141206031537e-01 -1.702562448978993226e+00 1.156797900074630903e+00 1.710618673654997979e+00 -3.838986631979289244e-01 2.734551382977455924e-01 -4.950110841247970517e-01 2.951598663559417135e-01 -1.164018663342044846e+00 3.608018900951357466e-01 1.696284154074745587e-01 4.765668734265845474e-01 2.708299940124084607e-02 3.024815190553815647e-01 -7.990126145807492364e-01 4.556723497370515075e-01 2.722164885699632220e-01 -6.750472732598273851e-01 4.282070541823440046e-01 4.213282362336074338e-01 -1.265808670494417587e+00 8.104096035049884739e-01 5.469522146238678384e-02 -6.741927702193212246e-01 -6.123997282637149153e-01 -1.414059380884905792e+00 1.767525563042972703e+00 5.619598297797044895e-01 5.224114045186504240e-01 -2.884526700231143104e-01 8.744452845024484056e-01 7.147076562578097425e-01 8.538348583459054453e-01
-1.386539602321346765e+00 -1.579337609249668706e+00 -7.734784281783985138e-01 9.911967473823726227e-01 7.925030395979441866e-02 -1.132471481926758505e+00 4.613429859429418189e-01 1.208961126595847313e+00 -2.781960387133743939e+00 1.508140975589627342e+00 2.379691911978058183e+00 -1.603931991085756792e+00 -5.975711479815404292e-01 -9.299866774803270397e-01 -1.668349963995993113e-01 6.228573447668104279e-01 1.437667083725107098e-01 -8.501368377671977283e-01 -1.534699963685461632e-01 -1.262038215463145097e+00 -3.689964215412258053e-01 6.611228654095259172e-01 5.765453467579874092e-01 -1.565534506250825242e+00 2.053952852738655022e+00 1.525988653179060073e+00 -7.909191622507467656e-01 -1.799531018948074435e+00 1.735327246586362282e+00 -5.203868125510691112e-01 -3.329284574475864233e-01 -5.200770025809000469e-02 2.473056194043611100e+00 -9.261044414168646544e-01 3.739749804964529467e+00 -5.026256578496162142e-01 -2.423694567312345838e-01 -1.029890811709370135e+00 -1.118147516193680469e+00 -1.658663878748393439e-01 1.977178589231873840e-01 4.089976170683561896e-01 4.818870995782464361e-01 -2.466103936115301987e-01 -6.166716425410571079e-01 1.969149965776792799e+00 -1.269418455063307416e+00 -6.667522092728862537e-01 3.514692925954095992e-01 1.497024745422450565e+00 -1.016958566841924094e+00 -2.554668030850175131e-01 -1.726637232056230098e-01 -1.128051836997132407e+00 3.763477323285702170e-01 9.318620295378443608e-01 1.693020911731272227e+00 4.599270002220120501e-01 -2.166927950681345472e-01 -1.236678709110277774e+00 -1.072078839612309098e+00 -9.121330688859514702e-01 -7.911904232035036344e-01 3.174697911826325769e-01 1.590668024822092130e+00 2.860488210639543727e+00 5.514894790521123191e-01 -9.040203968883534502e-01 2.556844626796800357e-01 1.563930290168834780e+00 -3.567431840873028781e-01 -1.015431222801697952e+00 1.921791696532681559e+00 -1.222457508102682278e+00 1.737530150299695819e+00 8.844418539629070319e-03 3.434285090620726316e-02 -1.433099248084830579e+00 -4.647843084003389774e-03 7.148552521115317804e-01 -4.041280877977940222e-01 -7.257562305948114245e-01 -3.678868917715321096e-01 -1.899212044254063037e-01 3.324618667799836280e-01 -7.689156025494151558e-01 -1.008519161530682773e+00 -1.151898379698460761e+00 -1.415216691583066622e+00 -7.931152978819180355e-01 -1.262050481152368286e+00 1.747261117057359092e+00 4.929928959890489404e-01 -9.183582689926186315e-01 1.433280531403752667e+00 3.872000379157658490e-01 4.386552849835170242e-01 -9.997464926088425741e-03 1.194248863719170502e-02 1.861044860844307980e+00
9.028791622289715768e-01 1.606054997896162240e+00 4.229334556320827887e-01 -7.894956788614831966e-01 -7.650660516043141790e-01 -9.679610663275406424e-02 1.374211094610916062e+00 2.210736245897491958e+00 -9.781241534912139546e-01 -4.568117026046235596e-01 1.381215788087254870e+00 1.087170512560936775e+00 -2.084030559564668816e-01 -1.421703901443766238e+00 9.354968819473159503e-01 -1.076159001453198982e+00 -8.703087929265780343e-01 -6.781459956062358962e-01 1.639492962109700747e+00 1.164054043228820029e-01 -9.446298824449306242e-01 -1.252691351908096662e+00 -3.775452540044612060e-01 5.862777174021196469e-01 -1.388914176173185355e+00 3.146797462388883471e+00 -2.039641304060773930e+00 -1.249645101585774437e-01 -2.385419566315127415e+00 1.387097986433069918e+00 2.076269297500509925e+00 -4.519128746783616646e-01 1.141605316604955789e+00 5.246398929932900579e-01 -2.023790325303850945e+00 9.497814781671451989e-01 2.052353614718313679e+00 -9.384959464645966642e-01 4.433094837050662318e-01 1.248101292033507725e+00 -9.581564466024969917e-01 2.832454429634720050e+00 -3.150637251008122641e-01 1.062035092564798555e+00 -2.239877467754218809e+00 7.040422504557537486e-01 8.222116583487096841e-01 -2.203625207479885439e+00 -2.200787947685590162e-01 -2.245633241223916166e+00 6.016581770877243995e-01 2.500578915956646497e+00 -1.028817857344852760e+00 -6.273625818437007506e-01 -1.641976885358643834e+00 -1.356615956595918604e+00 9.495069339499782046e-01 -9.454797459216127686e-01 -9.692726607178338005e-01 -1.907894407478369359e-02 -2.171994814467680113e-02 1.068941057409386719e+00 -2.627508264226352530e-01 2.830227061817198186e-01 1.134500036005715362e+00 3.306756491619296523e-01 1.016984862696215908e+00 5.679702985578410912e-01 1.558032446613905053e-02 -1.520005830891070664e+00 -6.417924561870439470e-01 -3.995917182587292726e-02 9.449001193750141692e-01 -9.829888826402439772e-01 -9.150619291090984486e-01 -1.739996409454146187e-02 -5.558885200756699119e-01 -9.241762143772784821e-01 1.532881557580514809e+00 9.056706026461973369e-02 -6.872995861898584247e-02 1.667326977375156671e+00 1.158596369795142078e-01 5.115216253733082530e-01 1.358262078226230241e+00 -1.236321036093570136e+00 -3.122719937583894878e-01 -1.408703981703627539e+00 6.990184210642987894e-01 -1.087366844834302126e+00 -2.741772213496721650e-02 2.108778558181870544e+00 1.224905451594151540e+00 1.191714338044951527e+00 4.978835616762657956e-01 -1.247005273924150615e+00 -2.263442765110183608e+00 -2.158942902768992589e+00 -1.160126391119874201e-01 -9.297664761731065930e-01
8.481764600107355445e-01 1.018333213189160036e+00 4.204104010551160675e-01 6.007036478255400880e-01 4.702160101352941823e-01 2.522419084854295779e+00 3.297014019019147479e+00 -1.505591816264559402e+00 -5.640691748551973639e-01 -1.299996197263813658e+00 2.601126791836558816e-01 -7.145339011615863267e-01 -1.791982940025843130e+00 -1.324651547739152668e-01 -5.588797039125299737e-02 -4.364978845908966676e-01 -7.619688892215319420e-01 -2.109876705504770023e+00 -4.102737360263268851e-01 2.139508179914358654e-01 -3.678131326636296383e-01 1.136554927092515932e+00 -1.363355283116195915e+00 4.305600183594226471e-01 -8.502100300828904222e-01 2.677818648749663577e-01 1.275789819589654428e+00 5.772437455853842714e-01 -6.321909459039918300e-01 8.210622532721258138e-02 1.574669157298115518e+00 9.095276606626340188e-01 -4.477205489271868233e-01 1.710646188651977040e+00 1.707014248630092768e+00 -2.644730846050220574e-01 -8.902093457759805428e-01 -7.888279704077163501e-01 -1.962030266409025558e-01 -9.958464725712010690e-01 -1.667373785984662127e-01 -3.370769461911346188e+00 -2.684284675475506754e-01 6.616233089432892456e-01 1.463860615050803782e+00 1.351293218805806218e+00 6.278961922079845381e-01 -9.966758106152585617e-01 2.152891554569548838e+00 -5.537674099007310335e-01 -3.143702645365455406e-01 9.462905915088358488e-02 2.746867966245348125e+00 1.968483203497938538e-01 -8.020449766576619455e-01 -2.275198327633043416e+00 -1.754454915607650545e-02 2.318166847216175386e-01 3.470371067914636010e-01 -8.974848172310171401e-01 -1.878837301873890475e-01 7.641630695065805279e-01 1.574434566713536432e+00 9.113217984311995368e-01 -1.499552518489487563e+00 7.661176727201188807e-01 3.948075936150195475e-01 -9.363711839635318057e-01 1.069490511192308091e+00 -7.467957343921067803e-01 2.231332911305614897e-01 5.559857191824760791e-01 1.597467773714951744e-01 9.872572638208783058e-01 -6.291949065024874388e-01 -2.181477810044867738e+00 -1.295082160108007807e+00 -1.573856802789030729e+00 -8.390805900236936177e-01 -7.307376638571432270e-01 8.336561683113209442e-01 2.378206367441805469e+00 -8.875102417246696351e-01 -1.171470102907292921e+00 -6.936631900375878068e-01 5.336117871729969542e-01 7.766103721225379175e-01 -6.098837580188544161e-01 -1.754119322546762616e+00 1.263977597507164541e+00 2.203611905104619489e-02 -1.798979511723203528e-01 -2.562987669383554046e+00 -1.096528284071465915e-02 9.887671095991251713e-01 -9.883285559074699300e-01 8.624240711794706193e-02 4.327794715957840044e-01 -6.393238234433969991e-01 2.250891289103476023e+00
