# 
#                 ----------------------------------------------------
#                 Data from a 3D direct N-body simulation. 
# 
#                 rows are i-particle; 
#                 coumns are :mass, tag, x ,y, z, vx, vy, vz, ax, ay, az
# 
#                 NTHU, Computational Physics 
# 
#                 ----------------------------------------------------
#                 Time = 0.0
0.000000000000000000e+00 1.000000000000000000e+00 2.000000000000000000e+00 3.000000000000000000e+00 4.000000000000000000e+00 5.000000000000000000e+00 6.000000000000000000e+00 7.000000000000000000e+00 8.000000000000000000e+00 9.000000000000000000e+00 1.000000000000000000e+01 1.100000000000000000e+01 1.200000000000000000e+01 1.300000000000000000e+01 1.400000000000000000e+01 1.500000000000000000e+01 1.600000000000000000e+01 1.700000000000000000e+01 1.800000000000000000e+01 1.900000000000000000e+01 2.000000000000000000e+01 2.100000000000000000e+01 2.200000000000000000e+01 2.300000000000000000e+01 2.400000000000000000e+01 2.500000000000000000e+01 2.600000000000000000e+01 2.700000000000000000e+01 2.800000000000000000e+01 2.900000000000000000e+01 3.000000000000000000e+01 3.100000000000000000e+01 3.200000000000000000e+01 3.300000000000000000e+01 3.400000000000000000e+01 3.500000000000000000e+01 3.600000000000000000e+01 3.700000000000000000e+01 3.800000000000000000e+01 3.900000000000000000e+01 4.000000000000000000e+01 4.100000000000000000e+01 4.200000000000000000e+01 4.300000000000000000e+01 4.400000000000000000e+01 4.500000000000000000e+01 4.600000000000000000e+01 4.700000000000000000e+01 4.800000000000000000e+01 4.900000000000000000e+01 5.000000000000000000e+01 5.100000000000000000e+01 5.200000000000000000e+01 5.300000000000000000e+01 5.400000000000000000e+01 5.500000000000000000e+01 5.600000000000000000e+01 5.700000000000000000e+01 5.800000000000000000e+01 5.900000000000000000e+01 6.000000000000000000e+01 6.100000000000000000e+01 6.200000000000000000e+01 6.300000000000000000e+01 6.400000000000000000e+01 6.500000000000000000e+01 6.600000000000000000e+01 6.700000000000000000e+01 6.800000000000000000e+01 6.900000000000000000e+01 7.000000000000000000e+01 7.100000000000000000e+01 7.200000000000000000e+01 7.300000000000000000e+01 7.400000000000000000e+01 7.500000000000000000e+01 7.600000000000000000e+01 7.700000000000000000e+01 7.800000000000000000e+01 7.900000000000000000e+01 8.000000000000000000e+01 8.100000000000000000e+01 8.200000000000000000e+01 8.300000000000000000e+01 8.400000000000000000e+01 8.500000000000000000e+01 8.600000000000000000e+01 8.700000000000000000e+01 8.800000000000000000e+01 8.900000000000000000e+01 9.000000000000000000e+01 9.100000000000000000e+01 9.200000000000000000e+01 9.300000000000000000e+01 9.400000000000000000e+01 9.500000000000000000e+01 9.600000000000000000e+01 9.700000000000000000e+01 9.800000000000000000e+01 9.900000000000000000e+01
1.000000000000000056e-01 1.000000000000000056e-01 1.000000000000000056e-01 1.000000000000000056e-01 1.000000000000000056e-01 1.000000000000000056e-01 1.000000000000000056e-01 1.000000000000000056e-01 1.000000000000000056e-01 1.000000000000000056e-01 1.000000000000000056e-01 1.000000000000000056e-01 1.000000000000000056e-01 1.000000000000000056e-01 1.000000000000000056e-01 1.000000000000000056e-01 1.000000000000000056e-01 1.000000000000000056e-01 1.000000000000000056e-01 1.000000000000000056e-01 1.000000000000000056e-01 1.000000000000000056e-01 1.000000000000000056e-01 1.000000000000000056e-01 1.000000000000000056e-01 1.000000000000000056e-01 1.000000000000000056e-01 1.000000000000000056e-01 1.000000000000000056e-01 1.000000000000000056e-01 1.000000000000000056e-01 1.000000000000000056e-01 1.000000000000000056e-01 1.000000000000000056e-01 1.000000000000000056e-01 1.000000000000000056e-01 1.000000000000000056e-01 1.000000000000000056e-01 1.000000000000000056e-01 1.000000000000000056e-01 1.000000000000000056e-01 1.000000000000000056e-01 1.000000000000000056e-01 1.000000000000000056e-01 1.000000000000000056e-01 1.000000000000000056e-01 1.000000000000000056e-01 1.000000000000000056e-01 1.000000000000000056e-01 1.000000000000000056e-01 1.000000000000000056e-01 1.000000000000000056e-01 1.000000000000000056e-01 1.000000000000000056e-01 1.000000000000000056e-01 1.000000000000000056e-01 1.000000000000000056e-01 1.000000000000000056e-01 1.000000000000000056e-01 1.000000000000000056e-01 1.000000000000000056e-01 1.000000000000000056e-01 1.000000000000000056e-01 1.000000000000000056e-01 1.000000000000000056e-01 1.000000000000000056e-01 1.000000000000000056e-01 1.000000000000000056e-01 1.000000000000000056e-01 1.000000000000000056e-01 1.000000000000000056e-01 1.000000000000000056e-01 1.000000000000000056e-01 1.000000000000000056e-01 1.000000000000000056e-01 1.000000000000000056e-01 1.000000000000000056e-01 1.000000000000000056e-01 1.000000000000000056e-01 1.000000000000000056e-01 1.000000000000000056e-01 1.000000000000000056e-01 1.000000000000000056e-01 1.000000000000000056e-01 1.000000000000000056e-01 1.000000000000000056e-01 1.000000000000000056e-01 1.000000000000000056e-01 1.000000000000000056e-01 1.000000000000000056e-01 1.000000000000000056e-01 1.000000000000000056e-01 1.000000000000000056e-01 1.000000000000000056e-01 1.000000000000000056e-01 1.000000000000000056e-01 1.000000000000000056e-01 1.000000000000000056e-01 1.000000000000000056e-01 1.000000000000000056e-01
2.314890054060736169e-01 -2.187143480746562563e-01 2.929898173867879763e+00 -1.387797481434345448e+00 -9.280236352105835085e-01 4.255059006904976515e-02 -5.609096683340312195e-01 -1.269791130900802534e+00 1.184168100760237374e+00 -1.079117033207801724e+00 -1.493735816383658266e+00 3.297357262762615204e-01 5.051773009247055857e-01 7.371331044550220035e-01 4.544731274370232554e-02 -6.913491651546909145e-01 -4.808848399119619033e-01 1.735494146768325197e-01 6.999590399440438482e-01 2.441944113686835394e+00 1.106769647897043907e+00 -8.988447445514622380e-01 -8.267192676837178400e-01 5.075594526996948241e-01 -1.585173002987878998e+00 -3.220005251793588985e-01 -1.329263312221381776e-01 1.285900477540354414e+00 -9.743273949535112832e-01 1.060484541811644643e+00 -9.402873563144523161e-02 -6.898434927149367235e-01 -9.721497491488697573e-01 -2.720502130352966397e-01 -1.135789520396432772e+00 6.909892958189213230e-01 -6.315214364021061177e-01 1.873886019748198128e+00 1.808998401206721729e+00 6.758933222899596860e-01 -6.650824702942368383e-01 -5.847323423846403356e-01 -2.824056769882635987e+00 5.379934853075065693e-01 -6.516147661305371486e-01 -4.528914120494749729e-01 9.849007049819458182e-01 2.544981759027239443e-01 -7.338296467063484263e-01 -6.799152592840961296e-01 2.509123578618336570e+00 -2.015877690844986025e-01 -4.715206441203297349e-01 1.616019883189394823e+00 -2.793450419250804728e-01 -2.691657201767608809e-01 -1.854873877190225784e+00 -1.193150367778005982e+00 -3.133379863798816944e-01 2.205965610079290595e+00 2.051211718544531326e+00 1.010433760853103102e+00 1.059413309398110403e+00 -1.154939593910195628e+00 -9.162518509188635196e-01 -7.450415497741748050e-01 -1.434532261016879806e+00 1.168043019388406378e+00 -1.114405743572231877e+00 -9.454213844041639003e-01 1.749058389885730147e+00 2.714530541981870826e+00 -1.371396922094631154e+00 -9.210796450113507838e-02 -1.657943648700457295e+00 -5.787010457497588495e-02 6.993633998758687353e-02 1.097557947097536069e+00 -2.372349069399785071e-01 -1.934621253225089488e+00 1.778801930005434961e+00 -6.137630174953869755e-01 1.062075167852688518e+00 6.409103927735779749e-01 -4.178376622213795799e-01 1.325071170669620546e+00 2.031650126079616481e+00 2.190358319070305204e-01 7.372673564240549426e-01 6.801341567995681237e-01 8.466162993791266356e-01 -1.196990111792289202e+00 -2.393023017135948588e-02 1.608864768983896187e+00 -1.743963389630171612e+00 -4.436093408990537390e-01 -7.132183373541141069e-01 -1.873874236491371859e-01 4.873995861615026265e-02 -1.522789050466270222e+00
-1.040601754745619917e-01 -6.022294108250247913e-01 -1.170168726510863344e+00 1.705597190015601949e+00 1.724248767435829777e+00 2.865483091233068241e-03 -5.706481934265966727e-01 -1.157178251088308629e+00 1.911074567477995534e-01 2.910174557848219656e-01 -2.128464822511097476e-02 -1.605696751924307331e-01 2.689109064746051381e-01 1.082530492652509446e+00 -6.555070344802650661e-02 2.694243944896255183e-01 1.775089939590048127e+00 -2.143213543920972908e-02 -1.838342299070203634e+00 -4.205268583926048409e-01 2.402017269931528531e+00 1.005820691205335793e+00 -6.874071986213204921e-01 -1.603527989832486123e-01 1.818374531762553814e-01 -7.817225665432409043e-01 5.040697519371368784e-01 5.148980815481521423e-02 2.152075726017315116e-01 -2.618500457988653718e+00 -1.379207353213335763e+00 1.811122934445803967e+00 -1.670970299411553284e-01 -3.875539759799550010e-01 2.541100351824837622e-01 -1.246205394510147002e+00 -1.294124401781004075e+00 1.469905045993392445e+00 -1.158343476166813879e+00 -1.492530738512728217e+00 2.657313473357010736e+00 -2.788583789424523007e-01 1.783563157813210731e+00 -2.378164947761905790e+00 1.569557490021043500e-01 -6.241294209999865839e-01 -6.126048119840933337e-01 1.088094679975049495e+00 -4.928214714055956236e-02 -3.339429976756820295e-01 -1.574615517983940061e+00 -1.284566441605425213e+00 6.176883631632983790e-02 1.326013409435592205e+00 9.081380512031772545e-01 3.979489555196275563e-01 -1.224817897586958138e+00 2.654918505814908514e+00 2.519469028194881055e+00 -3.610792046961914803e-01 -2.262338505895019058e-01 -1.266303103052992318e+00 7.658480705212208917e-02 -8.528260821492994470e-01 -3.165952904670569223e-01 1.230898940724553109e-01 -2.425049413267774234e+00 -1.018891052060678648e+00 1.312923499748808398e+00 1.004573522213175751e+00 3.044267224228806246e+00 -3.450569750543810432e-01 -8.439319361387439544e-01 2.684292516049475302e-03 6.769000872269523850e-01 2.015010280837857271e-01 8.579891602345390833e-01 2.685929586314834139e-01 -8.929489144571935988e-01 -3.722034583671657293e-01 1.744312907359379106e-01 -2.890048026152276517e-01 -5.506806250348724729e-01 -9.617435012200102884e-01 -1.021095833243878953e-01 1.517571682449814663e+00 1.194810849187129542e-01 6.499845438993155922e-01 -9.782411511798977388e-02 8.312547299553691982e-01 1.904976668416138996e-01 -1.448692652293296579e+00 -2.292368727565014808e-01 -1.566925628109284707e+00 -3.854334166246708993e-01 1.743817580205599127e-01 1.178314093320024458e+00 1.043038035886071357e+00 5.155734969147125479e-01 2.288589299507659824e-01
-1.747408839184914908e-01 -7.003551330364572447e-01 -1.126656877630042963e+00 -1.818504186862203387e+00 -1.675299028543881574e+00 -9.593920395882924446e-01 -6.618480091818241817e-01 8.164388620008233843e-01 3.067155170709545686e-01 9.991735539905620689e-01 -4.176081113627210240e-01 2.784468051803981048e-01 1.511066994423145182e+00 2.331207341234955432e-01 4.432352745476306755e-01 -2.632632582987064207e-02 1.559767177449894904e+00 5.784087330542242444e-01 1.401662394641791515e-02 -2.665255322326439691e-01 7.784784795159044313e-01 -8.324596308945986234e-01 6.258762051281113736e-01 6.021107448629375858e-02 -4.459778663683438005e-01 -6.404855671683665763e-01 -4.488956223192703821e-01 -5.396463101455269973e-01 -1.437981672952407808e-01 -1.192473859577331680e-01 -7.857347161770907862e-01 -2.679019588130995722e+00 -2.016655513100852615e-01 -6.661690034042898612e-01 -5.076181962527944735e-01 -2.350473453862344381e-02 3.055354864037427842e-01 4.178388352495737701e-01 2.967001188911717602e-01 1.220253602490749989e+00 3.051035955345610673e-01 9.937314104822158045e-01 1.472792296428736991e+00 -9.228562186239769316e-01 -6.446107071478374140e-01 -7.362395520432096774e-01 -3.712687681815900476e-01 4.258221821690016395e-01 -1.264925181068061510e+00 8.480416990377557251e-01 4.270494303283340343e-01 -1.845527940337929051e-01 -8.834278533858380689e-01 2.657892869408635117e-01 4.632448032358512102e-01 3.952155788569658434e-01 7.070473983065149459e-02 -1.412948400350348521e+00 -1.318248559421303812e+00 7.493235229520629481e-01 2.783282388664323204e-01 -4.455193689222352593e-01 -6.871021972526555333e-01 -2.576402956111085274e+00 2.028303352734387444e-01 -3.354339458290723774e-01 -8.425978326077147029e-01 1.073630519765040647e+00 -2.172740575305976751e+00 2.744924699615945429e-01 -7.096121530645230768e-01 -1.085197579022247449e+00 4.373970834105751770e-02 -2.617109430709353424e-01 3.003206810400398941e-01 1.064450580641435939e+00 2.046233330939442485e+00 7.429085600341841511e-01 8.705161332553397469e-03 1.901459323390948919e+00 -2.230568332132669696e+00 -6.190847688271540195e-01 2.762335769614931547e+00 1.996533509345838064e+00 -4.714276896929818494e-02 -2.762802611660519214e-01 -8.902396270467556327e-01 1.819961949553519920e-01 8.785847924046872315e-01 -8.188344362135788757e-01 1.159070053038969705e-01 3.014221109205055260e-01 4.160551147221762669e-01 2.538364911856060280e-01 -9.633094745634280809e-01 2.731145022622374352e-01 -2.321060813564815653e-02 1.207808882110195450e-02 3.740155742968624963e+00 -5.809121989876840919e-01
-2.904454884892380129e-01 -5.590410643353043163e-01 7.065581126720227312e-01 2.162005398515599031e-01 -7.674077862176228448e-01 -1.145058038093586639e+00 -3.862454403463715935e-01 -2.598394835689201710e+00 1.060925596274472638e-01 2.504316567206626765e+00 1.453202384041020423e+00 1.956796342255688603e-01 7.789995883758339401e-01 -9.194026717186526421e-01 7.987957164275066857e-01 -1.248183666397181701e+00 -1.849061824359764739e+00 -4.386471391862523661e-01 8.744708022524722013e-01 4.050080195548677042e-01 -2.241370687166178433e-01 -2.133768399731230392e-01 9.706123149072716227e-01 -1.325003664931333258e+00 5.493101499087626322e-02 2.101738300225097333e+00 8.075741256703213855e-01 -7.731846429686473066e-01 -1.996163554356824799e+00 -1.919249458532131525e-01 2.278350549792690916e-01 -6.102106545225813861e-01 3.044721230918107091e-01 -2.420242301495779902e+00 -2.237610129837860118e+00 -1.490507242758101758e-02 -4.391258962510474761e-01 1.223333336230723933e+00 -2.800265195649221939e-01 -6.821178987884767286e-01 -1.719965348976402186e-01 1.366020552589447545e+00 7.196519598337045576e-01 -1.808139289552854967e+00 1.356544802946893502e-01 1.728210492509293150e+00 -8.749735656979392706e-01 9.262576143183122168e-01 -1.465020232077020035e+00 9.103858684949364122e-01 -2.895277767164459726e-01 -3.551810856177422399e-02 1.435468211822110707e-01 -4.860033291197025651e-01 -6.258005238217937416e-01 1.519356124596588975e+00 3.283938064312916794e-01 4.410979240262254408e-01 4.467044407246831272e-01 -8.047017786797621142e-01 -6.982530506542643234e-02 -4.423511290465645951e-01 4.362569378194874892e-01 -1.849180371552876512e-01 -1.888300320108954322e+00 2.619656830087730981e-01 -9.311865448658487310e-01 8.186687473250643388e-01 1.344579379509400763e-01 8.499352901792424364e-02 2.045725853049694898e+00 2.785872759683239441e-01 1.783381433941545746e-01 -2.807191479780513088e+00 -5.257090521757781243e-01 -1.194375427076215468e+00 4.075206881582330021e-01 1.836019705698529458e+00 7.563968566616572353e-01 1.082860961577940095e+00 1.486575126753565845e+00 1.708211047704424543e-02 -3.227994105643971490e-01 1.027637378823577308e+00 6.896117419926731662e-01 1.651875208703563302e+00 1.953732856408068597e-01 -1.343280421253200352e+00 7.741744647739328133e-01 3.788045646127114474e-01 -7.904166929696310184e-01 4.311722706172882447e-01 1.061433320016536008e+00 -3.986139275471412002e-01 1.756304011748125005e+00 -1.066586711876850391e+00 -4.609355020709057782e-01 -1.243187180611644571e+00 2.977735947923879634e-01 6.436290620375652027e-01
1.841548865155395287e+00 1.836220750663441148e+00 -4.300342344255759230e-01 -5.919697062508959551e-01 -1.104093271355262695e+00 1.754201904809417512e+00 2.067235566499138866e+00 1.410151453852112602e-01 -5.637224099620410378e-01 7.147647495317918098e-01 3.300988130132063159e-01 1.503705487567527366e-01 1.500862903785434854e+00 -2.766150869265828205e-01 7.954354595216497348e-01 9.703660386425151385e-01 -6.536302167390651841e-01 -1.019841037416959084e+00 -4.812918898554593428e-01 -8.225858715701908630e-02 8.214693029921810163e-01 6.235399658055295127e-03 2.370799579199941221e+00 -5.800485979500301648e-01 -9.114320692214598063e-01 1.803676523496244855e+00 2.047035958981687220e-01 4.658850820705570661e-01 -2.987915484180339032e+00 -3.768686624527124884e+00 9.262512402870858030e-02 3.501370918778577007e-02 6.800821021096382646e-01 -1.043512007860291080e-01 -2.411751600231872295e-01 1.993786684552754096e-01 2.698993317989319962e-01 3.868057885279262420e-01 -3.104075595230316731e-01 7.389041951729000690e-01 -7.762368363435131480e-01 -9.088788149688692419e-02 -8.533584713935788990e-01 -1.009366685050754553e+00 -1.027266327782962119e+00 -1.146363259501315790e+00 -1.860217493647886924e-02 9.391469839528193697e-01 -1.231651902235235685e+00 -2.277159360942916155e+00 -1.205857386592527059e+00 2.350782324867858597e-01 -1.405974362259434951e+00 1.019185439974616747e+00 1.670037175200754787e+00 2.425799497111201242e-01 -1.457267505575668420e-01 7.478334059433007219e-01 2.004271752992694999e+00 -3.742378386273995661e-01 1.058848671559345700e+00 1.271921045257396132e+00 2.171886601799831173e-01 -9.592754881646002874e-01 6.540514097692685935e-02 1.558169601629589840e+00 -2.188279697291104942e+00 1.547395615859686879e+00 -1.116003498982057307e+00 -6.426273992390664214e-01 1.883182579846837790e+00 -1.039451958650519536e+00 7.592018112751464098e-01 -1.777380761840827939e+00 -1.345642546843783816e-01 1.860505666677054304e+00 1.569014576414076823e+00 -1.076056287975314829e+00 1.272618095710673636e+00 -1.788046358984117568e+00 3.340206954024349528e-01 -1.267560073503778195e+00 -6.597435786548178083e-01 -1.146123939809132297e+00 5.481068760797445927e-02 1.804174078186892849e-01 3.800228358206932805e-02 1.102434932493038477e+00 6.240377289905765235e-01 8.761641255944841999e-01 7.569932800361816039e-01 -9.961920145301701446e-01 -2.941965806663145444e-01 4.233931391122880417e-01 4.292134120120986718e-01 -3.420642822444259767e-01 -1.193519216550892548e+00 -2.013420930499044914e+00 -7.753127041408585107e-01 -7.325175222272445330e-02
1.568580642709999529e+00 -9.786466336572945401e-01 -2.347837562864354410e-01 3.542549793218809917e-01 -1.519855945368204342e+00 4.597517675462328146e-01 5.555574987021242306e-01 2.576360164122529994e+00 4.049536816674993434e-01 -1.724324920218563706e-01 5.225972372327523097e-01 -2.422583801202428389e-01 -9.555783956280357039e-01 1.037683063980997966e+00 1.686236607514913999e+00 8.737467257614141003e-01 4.800771695814649020e-01 -1.001189276776572656e+00 -1.992408066057585581e+00 5.761557582178966630e-02 2.401811920973938030e-01 1.540413206360797371e+00 6.300979408412736849e-01 9.890778934275480661e-02 -9.156672614051302173e-01 -8.524342477151665154e-01 -7.665860604358754049e-01 -1.270163341868773069e-02 -6.129523762118885832e-01 -9.283125674208612954e-02 -4.575664257944759283e-01 -9.958893369908050630e-01 -9.964691858322374807e-02 1.967839746554869707e-01 -6.030854942211064107e-02 -9.573221705370297263e-01 -1.582236816686761305e+00 -1.694017517946069251e+00 1.034429556130847416e+00 1.131524279981961811e+00 6.226799823590298821e-01 -9.753684128304689338e-01 -2.169125425869958962e-02 2.976682574621299371e-01 -1.749614625646651378e+00 -7.896582080416107985e-01 -2.364654639653308299e-01 6.581688366972440196e-01 8.917652175670497394e-01 -1.205360824933769726e+00 -7.076197225625310283e-01 1.198481596565557306e+00 7.164656967015886613e-02 8.784173188406219079e-01 1.793298349405799685e+00 -2.304484485318556874e+00 3.867072412512147506e-01 -9.986500262481994294e-01 -4.837198878117714984e-01 -4.703661694549671757e-01 -4.528662449184159833e-01 -1.186276200206692444e+00 6.632018213900241488e-01 -5.628535318668592691e-01 -9.078986943176036162e-01 1.292167489066926800e+00 -6.545808993018450428e-01 4.694080362745068347e-01 -1.595187096246171610e+00 1.068902343394815047e+00 1.729486284575389332e+00 -3.287818159217618663e-01 2.797501421892765183e-01 -3.986476636924925487e-01 2.306527571651566799e-01 -1.393380234031782017e+00 2.373750456466526548e-01 1.774583783605397647e-02 3.990130900001691017e-01 -5.025849604361716516e-02 3.834058918634159485e-01 -6.337636309381228239e-01 3.683310295295580405e-01 1.605473562532383491e-01 -7.212452719610997764e-01 4.805204856339120867e-01 4.933177017043166024e-01 -1.300697379325914227e+00 6.369305240152743908e-01 1.776289231391232071e-01 -6.552717318832708138e-01 -6.280345876396056237e-01 -1.695313237078594604e+00 1.760243540221918535e+00 6.701945824907722393e-01 4.060029285553795053e-01 -2.635420536277377490e-01 9.248358175431919959e-01 6.524233409677838713e-01 1.176911622444530181e+00
-1.571688463324883323e+00 -4.415703725606546115e+00 -7.352784262469301835e-01 1.029428281424737524e+00 -1.386083714526011867e-01 -1.432844656267995287e+00 6.237602222738400037e+00 1.142517989999334516e+00 -2.206013272530782388e+00 1.350600218236831074e+00 1.845725375457421880e+00 -1.842332908321971718e+00 -5.623903324493060296e-01 -1.176903856493804801e+00 5.440971890475292394e-01 6.116822362259149992e-01 2.218934412976725778e-01 -2.733185687486015869e+00 -3.234861751938205576e-01 -1.232035155147107819e+00 -3.269487142766112631e-01 6.963019114384965125e-01 1.074980925736737314e+00 -2.690665810531308377e+00 5.080043088119441386e+00 -7.002924579746662159e-01 -7.073918300514892010e-01 -2.418927834368133745e+00 3.017411002011999077e+00 -3.863511567129809809e-01 -2.056315459915499799e-01 -3.214093023926874876e-02 2.347700717919274371e+00 -1.823334367827689206e+00 1.580934556915338352e+00 -5.393359864875507670e-01 3.323927823160170991e-01 -1.618770321449854777e+00 -1.125650485239161114e+00 -1.999893910283342124e-01 2.117593083106831531e-01 -8.560132912472429023e-01 5.118499936213311008e-01 -1.652758913324059165e-01 8.032397439140049888e-01 -3.056709483480462008e-01 -1.279494792757492672e+00 -5.358079135173660079e-01 8.992173145970472348e-01 2.472795026336684465e+00 -9.761128942448428214e-01 -9.769501967341670534e-02 1.788712679651050519e-01 -3.940138664923116818e-01 1.562426971368955642e-01 -3.099818202983225385e-02 1.600656465156000019e+00 3.858845359380727591e-01 -1.542925636406839995e-01 -1.207817466761862191e+00 -1.125267741341258620e+00 -9.928137784708402913e-01 -1.284854661116328511e+00 3.018536575029780455e-01 1.785346241207525830e+00 4.394413009745194998e-01 4.633379409396692905e-01 -8.242598113059255160e-01 3.267626441977501406e-01 1.473392967685347887e+00 -3.377861698184046468e-01 -9.325419204399268969e-01 1.558783430387049584e+00 -8.265034060034658348e-01 1.779343034996629269e+00 5.223632232172287226e-03 -2.096649424647555049e-02 -1.491783547015975930e+00 -1.747128463074524019e-01 7.156221089355230269e-01 -4.549529102478861442e-01 2.031604004372052241e+00 -3.223176288407430534e-01 -1.985738190646421930e-01 1.957856417799196114e-01 -7.019382313856694644e-01 -1.034501219283939566e+00 -1.095923720282716118e+00 -1.147118482269164241e+00 -7.940462895037376789e-01 -1.419969004806329593e+00 1.001602632347692090e+00 1.597589720457750495e+00 -6.893634032765840747e-01 1.629326456069625229e+00 1.069776205867312591e+00 7.157262839095747120e-01 -1.698598692803535148e-01 9.936889467205476528e-03 1.165936506592557320e+00
2.840082983633523406e-01 1.615347392332228793e+00 4.251843453731062872e-01 -6.618134491691528565e-01 -7.504794106292228539e-01 -4.786859785458203453e-01 6.185619994582116643e-01 1.081506198051042089e+00 -3.505725896159422317e-01 -6.130833093499848951e-01 2.861035064778076009e+00 1.037170632495175049e+00 -3.416986703265800784e-01 -1.511588688532075953e+00 -1.892619265216453073e+00 -2.099621066744239872e+00 -8.646020238039598960e-01 -1.121151939967680367e+00 1.560607713984825784e+00 1.612842243261719266e-01 -8.973699791460787445e-01 -1.519943912813122244e+00 1.528630620699749532e+00 7.781800917795562711e-01 -8.990422694928363878e-01 5.867226516213759346e+00 -2.003172861619971545e+00 -9.314014878104855122e-02 -1.596579891460403244e+00 1.124451072273520147e+00 1.877810487125127104e+00 -4.568012473889838665e-01 9.970100056462167792e-01 -1.934058163527454743e+00 -1.537418148360106596e+00 1.093555719525704628e+00 1.903391320834814326e+00 -1.073982196618787022e+00 3.284184648724197131e-01 1.099778630412806324e+00 -9.669937312192543599e-01 -4.042004614941016039e-01 -3.286188365242236342e-01 1.044338748159733488e+00 -1.750171011760947248e+00 3.443290649175281715e+00 7.568635655989900402e-01 -2.089432834491381730e+00 -4.203916205886066432e-02 1.668646559147143327e+00 6.380145771011197509e-01 2.341129677661782704e+00 -1.283196144313041298e+00 -3.978547632169357473e-01 -1.913366905804361862e+00 -1.950125793427422982e+00 9.833049056562133128e-01 -8.595683426063238652e-01 -8.641928979881861039e-01 1.909952177909089721e-01 -1.280183152156182946e-01 1.009285340010217968e+00 -2.205362514983261468e-01 2.969124804819776586e-01 1.047925117837031017e+00 -6.612286966166686097e-01 8.570580985833081700e-01 6.174437990156022016e-01 -4.141420052127410545e-02 -1.514680640683801816e+00 -5.906670884858366000e-01 4.927162290316872660e-03 1.066811028191905875e+00 -5.620364924922666150e-01 -8.866336938394345779e-01 -5.939807903498074415e-01 -5.268596196758387196e-01 -6.760642856931952105e-01 1.615962624079446686e+00 1.293026043934201730e-01 -9.189277633929762712e-02 -2.731734973525573595e-01 1.191788793610426278e-01 4.870582539867572835e-01 9.530668027790666352e-01 -1.098270802455806994e+00 -2.861211120256029194e-01 -1.417405346986913006e+00 4.127086284686487527e-01 -1.126845783482572694e+00 -7.506958780471391091e-01 1.738540179535216668e+00 4.376853310344461789e+00 1.314491780892037109e+00 6.917272332362796039e-01 -3.436278871754420150e-01 -2.262087665569220807e+00 -2.238863306673315012e+00 -9.204518957259286149e-02 -2.639630918025073658e+00
1.297840723749814851e+00 2.339352202094493460e+00 3.855317951918726394e-01 5.935691784509034008e-01 4.268251542294341228e-01 2.449593219245071563e+00 -9.797012431535934152e-01 -1.319276509728833702e+00 -3.343635582098322123e-01 -1.629280145521657008e+00 -3.292412230361242975e-01 -8.710832156882756250e-01 -1.708228169746276226e+00 -1.776580992365597023e-01 -5.167613926075308450e-01 -1.204934808185371242e+00 -7.822793151557132507e-01 -4.393898644735430459e+00 -1.485778589132666083e-01 1.962206340401408122e-01 -3.465116876555859315e-01 1.108201381611291225e+00 -1.281130257554992768e+00 7.332037449046100441e-01 -2.808946266461014751e+00 -7.757961339187566252e-02 1.373526786699668767e+00 2.062375258095822672e-01 -1.064561106239459987e+00 1.096781076258830645e-02 1.262620013628953597e+00 8.729337620323894820e-01 -1.959623959667078641e-01 1.262028093996713896e+00 1.622750087351513049e+00 -2.537367631631849973e-01 -6.993068712952538180e-01 -6.919230892097859575e-01 -2.377590024206089891e-01 -9.013344004420777988e-01 -1.631205517218116963e-01 -4.524580176171472345e+00 -2.920854961860044896e-01 5.796402791315941050e-01 2.124331591671988040e+00 5.614142952075480864e+00 6.967951982021898250e-01 -1.042394517135332377e+00 2.875848723989392841e+00 4.155185412411548374e-01 -2.310864812147938874e-01 1.516859275750268021e-01 3.219775424092327309e+00 7.523466950327981073e-02 -1.481979358378016531e+00 -1.736429385895734478e+00 -3.061610613447936224e-02 2.657543893539216495e-01 3.460396792152740097e-01 -8.568751411886142977e-01 -8.381414060954436862e-02 8.934127178608516351e-01 1.149497845191785439e+00 8.698243136875174475e-01 -1.355970702549951667e+00 9.805373351707323826e-01 3.087370959591923536e-01 -8.969515078674561437e-01 1.076309388210595852e+00 -9.827311395417600570e-01 1.623728212844240126e-01 5.484413241272403372e-01 -1.112697680723177540e-01 1.029212880750794534e+00 -6.663213518198429774e-01 -2.386388702565944264e+00 -1.207566607501037614e+00 -1.456154464171751206e+00 -7.270771159152302765e-01 -8.019837625079334620e-01 7.621568969428322848e-01 1.156118402263090150e+00 -8.535148736270072867e-01 -1.098972356496124458e+00 -4.932599795299470458e-01 5.360537586245958108e-01 7.031863610480746374e-01 -1.048806145271059115e-01 -1.719080002503823312e+00 1.174041148819312319e+00 3.316703126656516676e-01 -2.583722216123001680e-01 -8.827012379281998777e-01 -1.493145324619546133e-01 1.211542787294650481e+00 -1.531015531472851521e+00 3.652386902826354476e-01 5.458834892676903694e-01 -5.942653712769951913e-01 5.038845546651494978e+00
