# 
#                 ----------------------------------------------------
#                 Data from a 3D direct N-body simulation. 
# 
#                 rows are i-particle; 
#                 coumns are :mass, tag, x ,y, z, vx, vy, vz, ax, ay, az
# 
#                 NTHU, Computational Physics 
# 
#                 ----------------------------------------------------
#                 Time = 0.0
0.000000000000000000e+00 1.000000000000000000e+00 2.000000000000000000e+00 3.000000000000000000e+00 4.000000000000000000e+00 5.000000000000000000e+00 6.000000000000000000e+00 7.000000000000000000e+00 8.000000000000000000e+00 9.000000000000000000e+00 1.000000000000000000e+01 1.100000000000000000e+01 1.200000000000000000e+01 1.300000000000000000e+01 1.400000000000000000e+01 1.500000000000000000e+01 1.600000000000000000e+01 1.700000000000000000e+01 1.800000000000000000e+01 1.900000000000000000e+01 2.000000000000000000e+01 2.100000000000000000e+01 2.200000000000000000e+01 2.300000000000000000e+01 2.400000000000000000e+01 2.500000000000000000e+01 2.600000000000000000e+01 2.700000000000000000e+01 2.800000000000000000e+01 2.900000000000000000e+01 3.000000000000000000e+01 3.100000000000000000e+01 3.200000000000000000e+01 3.300000000000000000e+01 3.400000000000000000e+01 3.500000000000000000e+01 3.600000000000000000e+01 3.700000000000000000e+01 3.800000000000000000e+01 3.900000000000000000e+01 4.000000000000000000e+01 4.100000000000000000e+01 4.200000000000000000e+01 4.300000000000000000e+01 4.400000000000000000e+01 4.500000000000000000e+01 4.600000000000000000e+01 4.700000000000000000e+01 4.800000000000000000e+01 4.900000000000000000e+01 5.000000000000000000e+01 5.100000000000000000e+01 5.200000000000000000e+01 5.300000000000000000e+01 5.400000000000000000e+01 5.500000000000000000e+01 5.600000000000000000e+01 5.700000000000000000e+01 5.800000000000000000e+01 5.900000000000000000e+01 6.000000000000000000e+01 6.100000000000000000e+01 6.200000000000000000e+01 6.300000000000000000e+01 6.400000000000000000e+01 6.500000000000000000e+01 6.600000000000000000e+01 6.700000000000000000e+01 6.800000000000000000e+01 6.900000000000000000e+01 7.000000000000000000e+01 7.100000000000000000e+01 7.200000000000000000e+01 7.300000000000000000e+01 7.400000000000000000e+01 7.500000000000000000e+01 7.600000000000000000e+01 7.700000000000000000e+01 7.800000000000000000e+01 7.900000000000000000e+01 8.000000000000000000e+01 8.100000000000000000e+01 8.200000000000000000e+01 8.300000000000000000e+01 8.400000000000000000e+01 8.500000000000000000e+01 8.600000000000000000e+01 8.700000000000000000e+01 8.800000000000000000e+01 8.900000000000000000e+01 9.000000000000000000e+01 9.100000000000000000e+01 9.200000000000000000e+01 9.300000000000000000e+01 9.400000000000000000e+01 9.500000000000000000e+01 9.600000000000000000e+01 9.700000000000000000e+01 9.800000000000000000e+01 9.900000000000000000e+01
1.000000000000000056e-01 1.000000000000000056e-01 1.000000000000000056e-01 1.000000000000000056e-01 1.000000000000000056e-01 1.000000000000000056e-01 1.000000000000000056e-01 1.000000000000000056e-01 1.000000000000000056e-01 1.000000000000000056e-01 1.000000000000000056e-01 1.000000000000000056e-01 1.000000000000000056e-01 1.000000000000000056e-01 1.000000000000000056e-01 1.000000000000000056e-01 1.000000000000000056e-01 1.000000000000000056e-01 1.000000000000000056e-01 1.000000000000000056e-01 1.000000000000000056e-01 1.000000000000000056e-01 1.000000000000000056e-01 1.000000000000000056e-01 1.000000000000000056e-01 1.000000000000000056e-01 1.000000000000000056e-01 1.000000000000000056e-01 1.000000000000000056e-01 1.000000000000000056e-01 1.000000000000000056e-01 1.000000000000000056e-01 1.000000000000000056e-01 1.000000000000000056e-01 1.000000000000000056e-01 1.000000000000000056e-01 1.000000000000000056e-01 1.000000000000000056e-01 1.000000000000000056e-01 1.000000000000000056e-01 1.000000000000000056e-01 1.000000000000000056e-01 1.000000000000000056e-01 1.000000000000000056e-01 1.000000000000000056e-01 1.000000000000000056e-01 1.000000000000000056e-01 1.000000000000000056e-01 1.000000000000000056e-01 1.000000000000000056e-01 1.000000000000000056e-01 1.000000000000000056e-01 1.000000000000000056e-01 1.000000000000000056e-01 1.000000000000000056e-01 1.000000000000000056e-01 1.000000000000000056e-01 1.000000000000000056e-01 1.000000000000000056e-01 1.000000000000000056e-01 1.000000000000000056e-01 1.000000000000000056e-01 1.000000000000000056e-01 1.000000000000000056e-01 1.000000000000000056e-01 1.000000000000000056e-01 1.000000000000000056e-01 1.000000000000000056e-01 1.000000000000000056e-01 1.000000000000000056e-01 1.000000000000000056e-01 1.000000000000000056e-01 1.000000000000000056e-01 1.000000000000000056e-01 1.000000000000000056e-01 1.000000000000000056e-01 1.000000000000000056e-01 1.000000000000000056e-01 1.000000000000000056e-01 1.000000000000000056e-01 1.000000000000000056e-01 1.000000000000000056e-01 1.000000000000000056e-01 1.000000000000000056e-01 1.000000000000000056e-01 1.000000000000000056e-01 1.000000000000000056e-01 1.000000000000000056e-01 1.000000000000000056e-01 1.000000000000000056e-01 1.000000000000000056e-01 1.000000000000000056e-01 1.000000000000000056e-01 1.000000000000000056e-01 1.000000000000000056e-01 1.000000000000000056e-01 1.000000000000000056e-01 1.000000000000000056e-01 1.000000000000000056e-01 1.000000000000000056e-01
1.490707573883028325e-01 -4.063104806464057916e-01 3.056825659751713609e+00 -1.320872101741038973e+00 -1.088083307542773159e+00 -2.145422678556213603e-01 -5.882463035023759446e-01 -1.769433359186824539e+00 1.168596093631986577e+00 -5.525964899909073802e-01 -1.174529556990189683e+00 3.144356576253422020e-01 6.497054175651025831e-01 5.248824673441897515e-01 2.709921412079068226e-01 -9.111917381287319984e-01 -8.450174610881656667e-01 -3.632994436919055256e-03 8.664590538732789282e-01 2.498635138024030145e+00 1.055607912387993119e+00 -9.261722276917353502e-01 -5.837728617107819096e-01 1.699844966016738623e-01 -1.433024326172058105e+00 2.773550074021718242e-02 1.331696275477364799e-02 1.056085436009914336e+00 -1.314305259812926563e+00 1.015904992763861703e+00 -5.212881898805495767e-02 -8.121331648984356777e-01 -8.921096718321810393e-01 -8.054463389974115817e-01 -1.585766414429048199e+00 6.758147280904158727e-01 -7.085321648537860062e-01 2.087197071405602955e+00 1.729155675062055808e+00 5.358061487491461161e-01 -6.950706112402836867e-01 -3.190343792182780969e-01 -2.669570796637634746e+00 1.741129551417518462e-01 -5.902813340576038570e-01 -7.423195453614588046e-02 7.845375076977643136e-01 4.330065173077567442e-01 -1.001411947466469110e+00 -4.917003204043640663e-01 2.432491498732173518e+00 -2.121168406408949214e-01 -4.596791386554992531e-01 1.510523005555596487e+00 -3.980837053572300333e-01 3.034170477700439891e-02 -1.758279153077788814e+00 -1.097789931963607746e+00 -2.267932436082463754e-01 2.019953033441431955e+00 2.012831607223490415e+00 9.000081940377394618e-01 1.203147012147508521e+00 -1.186138344640746967e+00 -1.256393060109355364e+00 -6.850811981910838178e-01 -1.612338850116393774e+00 1.315637306008585528e+00 -1.081119863830170225e+00 -8.987017794938130244e-01 2.151771656870051341e+00 2.752891761923972336e+00 -1.300832650131906076e+00 -6.701707983976316063e-01 -1.727515732607812327e+00 -2.967578526700133112e-01 1.503766261423814810e-01 1.433128450736446791e+00 -9.077423996482859858e-02 -1.704241536172373284e+00 2.066629363354146154e+00 -4.933371694266294183e-01 9.915513742590242874e-01 8.420286482338014133e-01 -2.779639895650134473e-01 1.642085077430366802e+00 2.049929848467774374e+00 -7.282553262721176701e-02 8.722288232110065875e-01 7.399532926383918241e-01 6.563874756564255231e-01 -1.092318741521130843e+00 2.253161175798349958e-01 1.518837326996809622e+00 -1.354789261387773225e+00 -6.379640038933093171e-01 -7.885608304674087687e-01 -4.338435792067644736e-01 1.084259877680542605e-01 -1.354419055222203294e+00
2.472597106471939032e-01 -2.322268300447774547e-01 -1.247619253952494622e+00 1.573552122960734101e+00 1.490083754682719919e+00 3.354083528283999804e-01 -1.529571810307793489e-01 -1.111123743962358468e+00 7.310144603697334154e-02 4.213921054188942139e-01 9.213181267769099403e-02 -1.277566063943746388e-01 5.599631491024095187e-01 1.000099442567027097e+00 1.073062903308891376e-02 4.223305849462171135e-01 1.627508641015169344e+00 -1.661425141377551318e-01 -1.904890221184506238e+00 -4.332842356082392543e-01 2.548679711594835862e+00 9.738273551443269449e-01 -1.892839468347125575e-01 -2.295030785193578060e-01 4.224540633130106915e-02 -3.412593202191488428e-01 5.070620689874665299e-01 8.726943267299253071e-02 -3.895352522551733809e-01 -3.352894621986934887e+00 -1.323732113768352203e+00 1.809032525639084232e+00 -1.857468354427370405e-03 -4.791633894201930977e-01 1.408838019474151493e-01 -1.180546351705717312e+00 -1.202293116882206192e+00 1.529650458275458424e+00 -1.214871687046443327e+00 -1.323906309262486758e+00 2.482432095971026875e+00 -3.020200030715046169e-01 1.606261379325228500e+00 -2.559480227261131002e+00 -9.664677308319732929e-02 -7.648187319124067907e-01 -6.027697050645757226e-01 1.234940812255106435e+00 -2.930558202487238972e-01 -7.513533887824074275e-01 -1.802646288887836290e+00 -1.191025290466239506e+00 -2.401813774097082133e-01 1.517579427386910318e+00 1.203974666925458292e+00 4.148467716514199211e-01 -1.233654800780150884e+00 2.788629658560717317e+00 2.904347320894125950e+00 -4.322709395918116759e-01 -1.840841617602379660e-02 -9.894168165796400904e-01 1.645824940384112145e-01 -1.038700293052376100e+00 -2.801113621875440662e-01 4.044569690764903691e-01 -2.847155615865325728e+00 -6.973692391780843547e-01 1.088934394464375011e+00 8.431564372711400912e-01 3.409891089197528480e+00 -5.523972893513410254e-01 -6.660348730180325472e-01 -3.478004472716256790e-01 6.326409377621933228e-01 5.571690112147071883e-01 1.161438528893390609e+00 4.322628052713341912e-02 -6.012932825738189768e-01 -7.266672271935968874e-01 2.393962269553049915e-01 -4.335278384011245767e-01 -6.802086546116025145e-01 -1.181306736414274416e+00 -8.716532926624585842e-02 1.533498014947118016e+00 1.218411980873946865e-01 8.330349922999847889e-01 3.278389666350899762e-02 9.837961908352393925e-01 3.240808360887301731e-01 -1.613728391952192309e+00 -2.390195890714295612e-01 -1.454582629711268504e+00 -2.818948409042338898e-01 9.821795760004700671e-02 8.933019456994033547e-01 5.947994537362164547e-01 3.589062153507350805e-01 1.302765662930031043e-01
1.645194215382120018e-01 -8.267473089429694388e-01 -1.166307013395453396e+00 -1.738141767728859532e+00 -1.968138792057427811e+00 -8.179467424298079159e-01 -6.583809329559588974e-01 1.310244266085446085e+00 3.846254366105770761e-01 9.272617840071591955e-01 -3.298913069853578461e-01 1.901538280542841020e-01 1.286545338606151390e+00 4.373871178198591725e-01 7.142319960827127057e-01 1.195893592446400366e-01 1.639701734262139166e+00 3.252305925396714037e-01 -3.843404209578381581e-01 -2.514644400466634622e-01 8.197409971821872920e-01 -5.018763524627549710e-01 7.340401028938747796e-01 9.301434271994575564e-02 -6.073240751197118703e-01 -8.112047474969567018e-01 -5.733537529338279537e-01 -6.040809442552587116e-01 -2.838079288165245018e-01 -1.378228512715536369e-01 -8.535075795843638513e-01 -2.861421629654575138e+00 -2.224172826883493992e-01 -6.407223348404466057e-01 -4.538708282243117398e-01 -2.193321537194212190e-01 -2.235619068753114461e-02 7.295300844645752347e-02 4.994525383614459857e-01 1.429514603257908023e+00 4.263494765924850105e-01 7.320294599636796296e-01 1.462331371297570071e+00 -8.531282172027306876e-01 -9.521264272736931211e-01 -8.186345817012731230e-01 -4.048813993936692945e-01 5.368112199141574781e-01 -1.026139611589302891e+00 5.750853815261867119e-01 2.821798772376201137e-01 5.486708898036049553e-02 -7.977123216851906840e-01 4.344566553820790045e-01 7.923747363110956732e-01 -8.410556221063546223e-02 1.463656306837193832e-01 -1.607078725752115078e+00 -1.408598847019388423e+00 6.385539002517396368e-01 1.868951973029209235e-01 -6.626030550561111676e-01 -4.282127156775943355e-01 -2.672299298227076569e+00 -1.160845512022479036e-02 -5.428804278444210318e-02 -9.679383212405939796e-01 1.148265238903029006e+00 -2.470824262448558351e+00 4.662060418386567706e-01 -3.611720099400029249e-01 -1.140382030626830412e+00 9.384495353085324509e-02 -3.218783073647858428e-01 3.326512056231251124e-01 7.400746804766495934e-01 2.070725721214168757e+00 7.184885264749657496e-01 7.605191888178655657e-02 1.874667396512251560e+00 -2.138841294281153438e+00 -5.827897960936617716e-01 2.818944624355349760e+00 2.007448220869443745e+00 -2.173497024045494830e-01 -1.689418052426703842e-01 -7.779486389416491177e-01 -7.515491045672252624e-02 9.729982122044875670e-01 -7.607118323550511318e-01 -1.057197363056813603e-02 1.690206203951965247e-01 1.000722216648679969e-01 6.003155544230102114e-01 -7.995368976205403655e-01 3.177479466399523722e-01 -6.839163969588868408e-02 1.991118376911070464e-01 3.858638735334522174e+00 -3.433642068558571125e-01
-5.378503314651578160e-01 -1.544241295712023065e+00 5.638917486543397750e-01 4.596884075607429176e-01 -8.410207707407850730e-01 -1.389873173329213785e+00 9.910541150036723812e-02 -2.409675832998399159e+00 -2.308162008282765854e-01 2.758052358616345234e+00 1.616558167924352363e+00 -5.149073750567992880e-01 6.640792268224063877e-01 -1.216858855960474495e+00 1.123772292786919147e+00 -8.827677928518458117e-01 -1.786022392865109998e+00 -9.256390550558666330e-01 7.828165985230957080e-01 1.631611857638542717e-01 -2.858947865104756181e-01 -4.846890896435840368e-02 1.474295700233887008e+00 -1.604731830566381579e+00 1.256512803905807996e+00 1.417646408780768974e+00 6.403566339462881674e-01 -1.155703833900904476e+00 -1.423931514432339895e+00 -2.477236469256988982e-01 1.927281047372457201e-01 -6.107055964864741560e-01 4.560675871688781857e-01 -2.457443581324051163e+00 -2.011585945207928994e+00 -1.424711490543173753e-01 -3.152687027826973631e-01 9.280295139761457479e-01 -5.271360643420373027e-01 -7.149942748263387049e-01 -1.265778710201478918e-01 1.280089659835474514e+00 8.274573851084673359e-01 -1.826052087707128901e+00 5.137452497656113115e-01 1.902455671883307664e+00 -1.131985914269717952e+00 8.812006092367157262e-01 -1.178681543883831617e+00 9.523425942100959274e-01 -4.708640969837400991e-01 -7.993908519455519834e-02 2.298542045638626019e-01 -5.840087077634671386e-01 -5.678154346377454198e-01 1.457097750254697344e+00 6.322308617485726812e-01 5.092259648550916395e-01 4.200120352993537698e-01 -1.058911188166054007e+00 -3.212615970727123460e-01 -6.688032645996527803e-01 8.483183682261470349e-01 -1.280165160863850349e-01 -1.508182371604259275e+00 3.285744759651891833e-01 -8.503611929646444079e-01 6.584689242879063764e-01 1.963159522197174267e-01 3.827765549881912976e-01 1.982691726363646989e+00 1.104758086420013080e-01 5.349143785251027072e-01 -2.878809211171441174e+00 -1.670864174985461914e-01 -1.211059718797512508e+00 3.942677738396110909e-01 1.514846918221171679e+00 7.080377506065590465e-01 1.217388161234400412e+00 1.390881491164932537e+00 7.036686100250580944e-01 -3.799623315263663814e-01 9.794011476257221682e-01 6.506970770938341753e-01 1.522010277047324500e+00 -1.309054187163495413e-02 -1.559334457086733794e+00 5.821023329173613536e-01 2.178925960426819908e-01 -1.127505596728283876e+00 6.087635672999444081e-01 1.047003576251412493e+00 -4.848004207383723729e-01 2.164019599058867982e+00 -8.824528358704698539e-01 -2.834914271815163200e-01 -1.210290508228798689e+00 2.988527524761954157e-01 1.149202122349358257e+00
1.614801044894854209e+00 2.053104808590188846e+00 -3.441651589237721964e-01 -7.356824425763858200e-01 -1.225404639834639431e+00 1.534441373259243013e+00 1.730425427631429480e+00 3.047086623500282476e-01 -6.124094782467456310e-01 5.926538764120931058e-01 6.663282455976133889e-01 4.334784528297204453e-02 1.397969562975138968e+00 -5.109522574166001085e-01 1.924846491185735475e-01 5.897414912681200327e-01 -8.193466692521330641e-01 -5.537090274373636101e-01 -1.929192003394084864e-01 -4.315585692410535412e-02 6.465715750259385386e-01 -3.428827834397319974e-01 2.536064544452418801e+00 5.427923255206079656e-01 -4.796366839353864986e-01 2.353623669999164836e+00 -1.714207874428299028e-01 -3.434339398789685305e-01 -2.887949070819243236e+00 -3.588358456242532579e+00 4.612258670872950717e-01 -5.613728279467020826e-02 8.619503005383909455e-01 -6.618234839527561419e-01 -9.914379764219145574e-01 4.722714199231379806e-01 6.507591536480195060e-01 2.265394169871416397e-01 -2.588332082668144962e-01 9.415450241890781502e-01 -9.751583348474962554e-01 -7.807840386722146586e-02 -9.202770760353508050e-01 -8.047821322747299444e-01 -1.557552367165012441e+00 -3.418292214990136801e-01 1.108520129417613354e-01 5.063883439071743542e-01 -1.179965852984536268e+00 -1.852489087537207757e+00 -1.073213548910166848e+00 6.943004890763104786e-01 -1.710220056408681355e+00 8.809643418450795460e-01 1.292052644047007925e+00 -7.039443836705831792e-02 6.142365310111399385e-02 5.947382679108167425e-01 1.849324286906870674e+00 -3.314451570339431719e-01 1.014931713440139660e+00 1.498355899957031445e+00 8.723830221685695552e-01 -8.988349243367145247e-01 2.865439424426302617e-01 1.248140507367791363e+00 -2.039368137241590162e+00 1.664581879993389579e+00 -1.123062864433900465e+00 -9.825439719952238082e-01 1.776417839847615143e+00 -1.032344944989641577e+00 1.052636123988279104e+00 -1.648871666109915646e+00 -3.063113182874049323e-01 1.676091080662466926e+00 1.465191998950958530e+00 -1.161596522707805335e+00 1.672829289824562915e+00 -1.754898522197505528e+00 3.147880080169332406e-01 3.300886617723493566e-01 -6.352267092724624975e-01 -1.048505165444842069e+00 5.029972099132482000e-02 -1.259208287974620567e-02 -1.306920370292260700e-02 6.740311211074555553e-01 6.693313813057649719e-01 6.456743482572735449e-01 5.694055709510913443e-01 -6.543052606522055115e-01 -3.960434785015136128e-01 7.084591318299308105e-01 6.298155088384438383e-01 -3.993888362846262918e-01 -1.670968450121657733e+00 -2.461821526092610402e+00 -7.903732059040540214e-01 -7.797223479983999006e-01
1.739896267606338753e+00 -1.757379871623022116e-01 -1.635998617251121778e-01 4.257423465474985402e-01 -1.382977797136151876e+00 9.573730638586981367e-01 -3.666256030940112653e-01 2.382979955251286253e+00 3.807756718013470265e-01 -5.793241607891956857e-01 3.740009632725694866e-01 -7.342187807963342916e-01 -1.286104222646310635e+00 1.009151434076558829e+00 9.780576933828755148e-01 5.718869261703530826e-01 3.165991308383131475e-01 -1.481010006370581111e+00 -1.977971682611419091e+00 9.102363831765380997e-02 1.738358462642570212e-01 1.771585617686326719e+00 3.914708292098223463e-01 -1.399747571648392475e+00 -4.067609622880244968e-01 -7.313316554882146603e-01 -4.735613013280716155e-01 -5.451754384213371996e-01 -7.131633286705161279e-01 -9.318071951311905632e-02 -2.249226194033303039e-01 -8.311137314967760314e-01 -1.320840605318236161e-01 5.777875406552118037e-02 6.482820768672288292e-01 -9.955830084296769522e-01 -1.675206519977759934e+00 -1.737159698076805592e+00 9.995224544963328128e-01 9.640550650649831743e-01 5.894912480838441216e-01 -1.592856585864331098e+00 -8.457938287611355133e-02 3.930213026417331834e-01 -1.195688222318130656e+00 -1.714597873440318332e-01 -1.023428487780152774e-01 4.460970470819085598e-01 1.507538989162678034e+00 -1.540856189852731317e+00 -7.359166437753255074e-01 1.177842553533486658e+00 7.101468879732607542e-01 7.895915612981829756e-01 1.515490532450737504e+00 -2.408567291619690742e+00 3.628387944371903040e-01 -9.411414103517569130e-01 -4.218136406435362695e-01 -6.284851962433328776e-01 -4.593746588296180322e-01 -9.728159463355353642e-01 1.984847288197105541e+00 -3.987313841641637047e-01 -1.277935953153105597e+00 1.511340857706123586e+00 -6.019557344885974048e-01 2.721911352593953670e-01 -1.387716235761456085e+00 8.355823002976796587e-01 1.751707563688336577e+00 -2.248192706986006373e-01 1.854414549465112916e-01 -3.318417684612312013e-01 9.120224125293062423e-02 -1.831030600333194425e+00 1.207713122145638758e-02 -2.507360786225873994e-01 2.843945856500951774e-01 -2.228799029951883393e-01 5.309072988023424422e-01 8.003253745556634380e-01 1.987163196977620172e-01 -4.998689030766850783e-02 -9.387324946834537664e-01 5.934654252125535212e-01 6.282982141274847665e-01 -1.252110001952668084e+00 3.120083701507436746e-01 3.991597973614988693e-01 -6.095717165413876426e-01 -6.982876515972626930e-01 2.883158458788405709e-01 1.688646582366482019e+00 1.003423262841434349e+00 3.735049140242471810e-02 -1.943757254114023281e-01 8.869827346204945950e-01 5.335050537640256829e-01 8.180440348711052190e-01
-1.203218467587479523e+00 -2.544734414021348456e+01 -6.998843800808945970e-01 1.098339716390605014e+00 -2.486086505582370265e-01 -3.805681156935331599e-01 2.493331278677993534e+00 8.101632399133603668e-01 -1.296023667985318983e+00 1.212749867770195999e+00 -6.404636013302686948e-01 -5.777713216741692470e+00 -6.307936308506704171e-01 -1.371721456017942264e+00 -1.009381806704299223e+00 2.738960350608605765e+00 4.098530573164840263e-01 1.101154926995492112e+00 -5.502579873111179687e-01 -1.193532450654582577e+00 -2.885218759955733847e-01 1.044291748221419569e+00 1.820284550375237842e+00 3.014035170039284139e+01 2.210453395582699265e+00 -2.203346947399965838e+00 -1.194933466012255918e+00 -3.937794343315891288e-01 2.660156186782252963e+00 -2.005548164066734695e-01 -1.545048857448408086e-01 2.700817245448024900e-02 7.984411201700731819e-01 2.543261762747008881e+00 5.396663319196639108e+00 -7.362124124162283678e-01 7.682343481017241960e-01 -1.298833230052808263e+00 -1.388151029422139304e+00 -9.053473025375138872e-02 2.492142181023398739e-01 -5.867139376129038020e-01 5.792040642846773002e-01 -2.914927491368062007e-02 1.882921268779110147e+00 -7.837704325114558390e-01 -1.356732165070732909e+00 -9.246176559291147123e-02 1.681582574399091090e+00 6.496835146123609572e-01 -8.074503792771057231e-01 -3.430817471451489409e-01 2.067365628520558474e+01 -6.429255250121592713e-01 2.250357136717405226e-01 -6.700905658834535039e-01 1.466943964825496494e+00 3.044212575726390480e-01 -1.172723860773884769e-01 -1.343767174778629281e+00 -1.378862532450113587e+00 -1.246915793075792589e+00 -2.461801695919424660e+00 2.736395082092669129e-01 2.092386489850300180e+00 1.795148575227137333e-01 3.606644665668589655e-01 -7.959739467412121350e-01 2.691862634120631981e-01 1.543228172064920578e+00 -2.999098157937795106e-01 -7.715573723132250761e-01 1.830674216825169287e+00 9.663261151702220442e-01 1.849595405966306894e+00 -5.108838545668634712e-01 -1.027141963904548566e-01 -1.615984545451347509e+00 -1.802412035112130884e-01 5.818814356709294255e-01 -5.075423277364591312e-01 -9.397104072825741561e-01 -2.531481977915392423e-01 -3.561565056892740944e-01 -3.971247610765425984e-01 -5.445101067763702396e-01 -1.058474224771119410e+00 -5.171056704885719224e-01 -9.190324593543613974e-01 -8.416562786315023859e-01 -1.828127072122472496e+00 7.860965794132922513e-01 -3.073692582445879040e+01 -1.554777645726174440e-01 2.540344301021585594e+00 1.038149167072497825e+00 9.797256790613886324e-01 -1.105514512920903331e-01 1.976107399841960273e-03 3.911890827381354629e+00
-1.563505412018260543e+00 -2.623370192623551311e+00 4.342449694735378563e-01 -8.382293612567073282e-01 -4.213979556718498443e-01 -1.552311848361718205e+00 -2.465789267070415125e+00 6.452961495553244387e-01 -1.918145752602181953e-01 -4.353644534591273318e-01 -8.231382261089331687e-01 -2.587632197132943457e+00 -6.898445888582670493e-01 -4.726314705702562291e-01 -7.703066890615087314e-02 -1.341328283230362350e+00 -7.789337273331663480e-01 4.796448888725052262e-01 1.303061182977393928e+00 2.252599516444721839e-01 -8.599050948344718615e-01 -2.066646728088151086e+00 2.784521573664787697e-01 -2.928755513408128230e+00 -1.200003212556928489e-03 4.765912300217644559e-01 -1.854282457554028651e+00 2.876526201423273976e-01 2.131687653261796545e+00 7.278457041554003970e-01 1.865519783146765143e+00 -4.596251332085690144e-01 -6.324671733794998141e-02 3.071638376925207137e+00 -1.629219185273360404e+00 1.571417318944248187e+00 1.964494280454899933e+00 -6.446219792389645820e-01 2.351958626394073659e-01 9.231110138650364672e-01 -1.041930529507326675e+00 1.267654022157877813e+00 -3.476053211170040402e-01 1.001607193713951460e+00 -2.375306797445407181e+00 2.019876475035031316e+00 5.922285431147856771e-01 -2.708189885082227466e+00 7.009705760326478963e-01 1.963479591844027317e+00 6.633713448745244268e-01 2.276115203632091077e+00 4.757332486644876290e+00 -8.569261670360626137e-01 -1.775124312150099248e+00 -1.726160627802467484e+00 1.106101778006031822e+00 -6.870597029972282943e-01 -7.004957487696465979e-01 3.115022243682388225e-01 -2.774199648294052856e-01 1.150834385698057849e+00 -8.479804913958012280e-01 3.121057208426629148e-01 4.860042856919979393e-01 -1.359525898007934552e+00 6.606696754762128032e-01 5.417471880048296828e-01 -1.038834212735118001e-02 -1.904463703234773320e+00 -4.882404493970254888e-01 5.657799565283911508e-02 1.983284410659409192e+00 1.668731193816513914e+00 -8.346089517639604383e-01 -1.380729831942667296e+00 -5.304565122480967565e-01 -2.235124912460146329e-01 2.558081022415281236e+00 1.779799834071572606e-01 -8.032130863825712175e-02 3.801778400424256965e+00 1.323089123557989188e-01 4.852369179739902116e-01 -9.567393931107701088e-02 -8.393320980296260503e-01 -2.434652542851551693e-01 -2.803450548066311665e+00 6.261946472833365696e-02 -1.222411288097862814e+00 -1.019217494273356284e+00 1.674598030330584075e+00 8.661141614624360940e+00 1.540285013159861327e+00 1.256493179605550736e+00 1.635880275183544952e-01 -2.708583531470561301e+00 -2.016628083087053103e+00 -6.082830421943934140e-02 -2.038621817084024013e+00
-1.118285298780942627e+00 1.588803128059353398e+01 3.290356247078817242e-01 -2.483782230280471431e-02 1.102859638088511840e+00 2.516378112162263925e+00 -8.517439503137314016e-01 -6.510779140350305694e-01 -1.441920273254089502e-01 -2.714580951447198576e+00 8.248551022550434930e-02 -3.272308502730009838e+00 -1.601151428131604826e+00 -1.483519152920098061e-01 -2.487868111996246689e+00 -1.504940259610979325e+00 -8.616103229337542802e-01 -2.836777338493235323e+00 2.477074537936703180e-01 1.377771983088283414e-01 -3.103587866138339257e-01 1.301218363080825613e+00 -2.276944219137265524e+00 5.389347637409756864e+00 3.515328288777115340e+00 2.069469296651598622e+00 1.567362503742786073e+00 2.330609478432514869e+00 7.351597631707998959e-01 -1.505042387290465595e-03 1.130375621681504406e+00 7.810530457390987280e-01 -4.741365555029282142e-01 1.548688300156501718e+00 2.555793456718441492e-01 -1.051284809754279015e-01 -9.752967009479726612e-02 -8.945444850515429924e-02 -2.554275112123497934e-02 -8.127684123461611509e-01 -1.702280963685547099e-01 -2.488112299947177863e+00 -3.431115077235174504e-01 3.690079657041654415e-01 5.504446329945587912e+00 1.702576478998419462e+00 5.983304935330875374e-01 -1.129321312146383649e+00 3.241703778897628396e+00 -1.617795197846747302e+00 -7.339587050532622725e-02 -3.927019136757842199e-01 -8.872190167217846479e+00 -5.584519485850197862e-01 -1.142099966522120980e+00 8.483227760458016409e-01 -2.468476918774428486e-01 3.107090702799740756e-01 2.726695521999955574e-01 -6.365468483118592591e-01 -1.491698844197805393e-02 1.262272284269162492e+00 -3.653838592239668781e-01 7.868366456343617310e-01 -2.152160812759270403e+00 8.607981531520813023e-01 2.237599882540438345e-01 -1.080034485752197515e+00 9.987294867137319621e-01 -1.444050228217665932e+00 6.800367225868063359e-02 4.955094337106354940e-01 -1.196343313057288693e+00 -1.530101048258690977e+00 -7.186740828388887836e-01 -1.756655300162548450e+00 -1.076213797032897102e+00 -1.126030257928313016e+00 -4.104581356476968979e-01 -9.634955786052123994e-01 6.676737483647161575e-01 -1.104063183661875419e-01 -8.443026241882375382e-01 -9.573478259968349890e-01 5.521071220321952661e-02 5.541029631632328201e-01 7.198949159923555552e-01 4.109819221464949823e-01 -1.531415708406912879e+00 1.050222182877142529e+00 2.571969565870497743e-01 -3.600587521999972229e-01 -1.861214055712907323e+00 -6.014807643351528510e-01 2.230410411887492561e+00 -1.770150916393257390e+00 2.086118834380998877e-01 -1.011863509558366347e+00 -5.843496368896864412e-01 -8.720620285134853544e-01
