# 
#                 ----------------------------------------------------
#                 Data from a 3D direct N-body simulation. 
# 
#                 rows are i-particle; 
#                 coumns are :mass, tag, x ,y, z, vx, vy, vz, ax, ay, az
# 
#                 NTHU, Computational Physics 
# 
#                 ----------------------------------------------------
#                 Time = 0.0
0.000000000000000000e+00 1.000000000000000000e+00 2.000000000000000000e+00 3.000000000000000000e+00 4.000000000000000000e+00 5.000000000000000000e+00 6.000000000000000000e+00 7.000000000000000000e+00 8.000000000000000000e+00 9.000000000000000000e+00 1.000000000000000000e+01 1.100000000000000000e+01 1.200000000000000000e+01 1.300000000000000000e+01 1.400000000000000000e+01 1.500000000000000000e+01 1.600000000000000000e+01 1.700000000000000000e+01 1.800000000000000000e+01 1.900000000000000000e+01 2.000000000000000000e+01 2.100000000000000000e+01 2.200000000000000000e+01 2.300000000000000000e+01 2.400000000000000000e+01 2.500000000000000000e+01 2.600000000000000000e+01 2.700000000000000000e+01 2.800000000000000000e+01 2.900000000000000000e+01 3.000000000000000000e+01 3.100000000000000000e+01 3.200000000000000000e+01 3.300000000000000000e+01 3.400000000000000000e+01 3.500000000000000000e+01 3.600000000000000000e+01 3.700000000000000000e+01 3.800000000000000000e+01 3.900000000000000000e+01 4.000000000000000000e+01 4.100000000000000000e+01 4.200000000000000000e+01 4.300000000000000000e+01 4.400000000000000000e+01 4.500000000000000000e+01 4.600000000000000000e+01 4.700000000000000000e+01 4.800000000000000000e+01 4.900000000000000000e+01 5.000000000000000000e+01 5.100000000000000000e+01 5.200000000000000000e+01 5.300000000000000000e+01 5.400000000000000000e+01 5.500000000000000000e+01 5.600000000000000000e+01 5.700000000000000000e+01 5.800000000000000000e+01 5.900000000000000000e+01 6.000000000000000000e+01 6.100000000000000000e+01 6.200000000000000000e+01 6.300000000000000000e+01 6.400000000000000000e+01 6.500000000000000000e+01 6.600000000000000000e+01 6.700000000000000000e+01 6.800000000000000000e+01 6.900000000000000000e+01 7.000000000000000000e+01 7.100000000000000000e+01 7.200000000000000000e+01 7.300000000000000000e+01 7.400000000000000000e+01 7.500000000000000000e+01 7.600000000000000000e+01 7.700000000000000000e+01 7.800000000000000000e+01 7.900000000000000000e+01 8.000000000000000000e+01 8.100000000000000000e+01 8.200000000000000000e+01 8.300000000000000000e+01 8.400000000000000000e+01 8.500000000000000000e+01 8.600000000000000000e+01 8.700000000000000000e+01 8.800000000000000000e+01 8.900000000000000000e+01 9.000000000000000000e+01 9.100000000000000000e+01 9.200000000000000000e+01 9.300000000000000000e+01 9.400000000000000000e+01 9.500000000000000000e+01 9.600000000000000000e+01 9.700000000000000000e+01 9.800000000000000000e+01 9.900000000000000000e+01
1.000000000000000056e-01 1.000000000000000056e-01 1.000000000000000056e-01 1.000000000000000056e-01 1.000000000000000056e-01 1.000000000000000056e-01 1.000000000000000056e-01 1.000000000000000056e-01 1.000000000000000056e-01 1.000000000000000056e-01 1.000000000000000056e-01 1.000000000000000056e-01 1.000000000000000056e-01 1.000000000000000056e-01 1.000000000000000056e-01 1.000000000000000056e-01 1.000000000000000056e-01 1.000000000000000056e-01 1.000000000000000056e-01 1.000000000000000056e-01 1.000000000000000056e-01 1.000000000000000056e-01 1.000000000000000056e-01 1.000000000000000056e-01 1.000000000000000056e-01 1.000000000000000056e-01 1.000000000000000056e-01 1.000000000000000056e-01 1.000000000000000056e-01 1.000000000000000056e-01 1.000000000000000056e-01 1.000000000000000056e-01 1.000000000000000056e-01 1.000000000000000056e-01 1.000000000000000056e-01 1.000000000000000056e-01 1.000000000000000056e-01 1.000000000000000056e-01 1.000000000000000056e-01 1.000000000000000056e-01 1.000000000000000056e-01 1.000000000000000056e-01 1.000000000000000056e-01 1.000000000000000056e-01 1.000000000000000056e-01 1.000000000000000056e-01 1.000000000000000056e-01 1.000000000000000056e-01 1.000000000000000056e-01 1.000000000000000056e-01 1.000000000000000056e-01 1.000000000000000056e-01 1.000000000000000056e-01 1.000000000000000056e-01 1.000000000000000056e-01 1.000000000000000056e-01 1.000000000000000056e-01 1.000000000000000056e-01 1.000000000000000056e-01 1.000000000000000056e-01 1.000000000000000056e-01 1.000000000000000056e-01 1.000000000000000056e-01 1.000000000000000056e-01 1.000000000000000056e-01 1.000000000000000056e-01 1.000000000000000056e-01 1.000000000000000056e-01 1.000000000000000056e-01 1.000000000000000056e-01 1.000000000000000056e-01 1.000000000000000056e-01 1.000000000000000056e-01 1.000000000000000056e-01 1.000000000000000056e-01 1.000000000000000056e-01 1.000000000000000056e-01 1.000000000000000056e-01 1.000000000000000056e-01 1.000000000000000056e-01 1.000000000000000056e-01 1.000000000000000056e-01 1.000000000000000056e-01 1.000000000000000056e-01 1.000000000000000056e-01 1.000000000000000056e-01 1.000000000000000056e-01 1.000000000000000056e-01 1.000000000000000056e-01 1.000000000000000056e-01 1.000000000000000056e-01 1.000000000000000056e-01 1.000000000000000056e-01 1.000000000000000056e-01 1.000000000000000056e-01 1.000000000000000056e-01 1.000000000000000056e-01 1.000000000000000056e-01 1.000000000000000056e-01 1.000000000000000056e-01
-4.134594279549413942e-01 8.107919836944770253e-01 -3.935541881355649196e-01 -4.796120327185918186e-01 -1.183760578635221883e+00 -2.205181440714964747e-01 1.239715857247825903e-01 -6.790535760585926506e-02 3.762428284299174641e-01 1.234991622084843810e+00 1.612324588529485125e-01 -9.898620936288133887e-01 9.406223284526791240e-01 -6.834419148048498371e-01 2.221137402635304792e-01 -3.975958710699438181e-01 7.959950004049040073e-01 1.424985656256888111e+00 4.049653695456577607e-01 7.875292986539964568e-01 3.122268966339920127e+00 -8.777722917884726028e-01 -1.590908275881575962e-01 -7.477553740787591385e-01 -5.973890988007266589e-01 -9.248078232138930987e-01 6.325814112226069152e-01 5.396026380122721511e-01 1.847580714845397543e+00 9.288922741985571330e-01 1.181718200215881032e-01 -6.039512846523525935e-01 -1.406099973742208187e+00 1.114401315188894293e+00 -4.729830976571657297e-01 1.142454772884623701e-03 -1.203577006719684706e+00 -1.412885541546277379e-01 1.572177840991485942e+00 -3.104686795796085974e+00 5.587098993153016835e-01 -1.572403663393296291e+00 -5.221760515949163128e-01 5.770806776129524529e-01 -6.302226124237716443e-01 1.346822369887008763e+00 7.849500080211596620e-02 7.568190380835360109e-01 5.949475376464145038e-01 6.051437285571009683e-01 -1.349929456193967869e+00 5.954812042977960518e-01 -6.923386334135334108e-01 1.490042697822724360e+00 -1.111640407479102644e+00 -1.348429478451706576e+00 1.143426263624584660e+00 1.938598677782523982e-01 -6.360494327955873439e-01 -1.175009050854641357e+00 -1.657039192745940193e-01 1.324833386109994793e+00 -1.576390251076433380e+00 -1.002131193779436824e+00 -3.471383474797700153e-01 6.774195752598373144e-01 -1.371420039609908104e+00 1.214603606549917281e+00 6.809621436852022480e-01 1.152937235676242844e+00 -1.655949258089519094e-01 -7.694639404054522958e-01 3.089262106720771950e+00 6.220726523997879287e-01 4.914450682704468165e-01 -1.495729750720820261e+00 -1.786742096575002714e+00 5.127895248619757096e-01 -1.837051715936437457e-01 -1.094870276927819297e-01 1.443238218673804196e+00 1.836912623739516137e+00 2.732586286380486174e-01 -2.664364369170476810e+00 -4.320990271039519826e-01 1.671497765486470888e+00 -1.107491562114382155e+00 8.888601015914480985e-02 1.328762289188414047e-01 6.649030644660338663e-01 -1.542770091072911617e-02 -4.074496671687613536e-01 -3.103084766520596283e-01 -2.168184155207487418e+00 -4.264757595777947663e-01 -9.859914386776588713e-02 3.050097534858118298e-01 -4.725853793103323985e-01 5.197660343286155671e-01 -9.177830208580343152e-01
-2.330511539827731515e-01 6.856586063905365513e-01 -1.535983797056251099e+00 1.055400708876816251e+00 6.556814089147643410e-01 -2.337338866391684526e-03 -9.493498865379981222e-01 -5.063421211937563921e-02 -6.450496334482124228e-01 9.428569203424082001e-01 -5.968082293171985686e-01 3.160910503595857901e-01 -1.353826693526797076e+00 -2.852871640234651562e-01 -1.099441050662827823e+00 5.388280597345630474e-01 2.162704243820477323e+00 -1.356428485689411545e+00 2.022442091152070465e-01 1.642733170110082019e+00 -2.395441346252650483e+00 -1.356364609430089629e+00 -1.127506584187573324e+00 -1.007409879259279606e+00 9.740854446340765360e-01 -3.907760570103226416e-01 1.755502403073729845e+00 6.847049445336994555e-01 -8.274087888295317272e-01 -2.690204663457714668e-02 -7.180684110164690936e-02 6.839056164084535983e-01 1.662895124681824210e+00 -3.947637053956353642e-02 8.326525770451231878e-02 2.063603751756062366e-01 1.221737265769380354e+00 6.026243026080350118e-01 -1.638251297681895813e-01 -3.256086986550199569e-01 -1.074036763602149724e+00 2.584505134508506830e-01 -1.497830299468024540e-01 -7.741009952518369541e-01 -8.665960325372559225e-01 -2.264229322343524337e-02 4.296870823143230100e-01 2.882619399673477911e+00 3.461747979951160237e-01 1.357392137207966698e-01 -1.472320290413721811e+00 1.460133677752849968e+00 -8.678810834354373505e-01 1.245189218183149871e+00 3.270938959374994348e-01 -1.084034182029821825e+00 -1.847185718640043550e+00 -2.955326598042593012e-01 -6.589700547429734323e-01 5.151648471474194746e-02 2.478137724108085138e-01 -5.000291723503789143e-01 -1.439767122547585432e+00 -2.748673239244703304e-01 6.283828064782422951e-01 1.948483270350707952e-03 -1.481968058140684219e+00 -3.351596801792805502e-01 -6.045521873569996707e-01 -5.508030176372163966e-01 -1.192471171071345371e-01 -1.844886945422161029e+00 -2.319053007199816940e-01 1.121619902257603441e+00 -1.326687342402429026e+00 -2.991174102432278548e-01 -2.549181422217369417e-02 5.594506080362333933e-03 5.525719505884067739e-02 -3.791212108519483315e-01 -3.876998167228278280e-01 1.163708466900025496e+00 -8.063475848305523552e-01 8.629677872520029602e-01 -3.914037345165219395e-01 1.437621722523912293e+00 -1.156265194078151426e+00 -1.700672722434106721e-01 1.075154773373005135e+00 -7.274728421847278526e-01 -1.610407104746219620e+00 -8.808300541762364988e-01 9.660041361441206176e-01 -1.331827551176965940e+00 1.578030092236467341e-01 -8.874641523699160484e-01 1.275538497541279570e+00 -3.590552096177572206e-01 -4.012007780427148673e-02 8.532453991273369898e-01
8.968981814181484769e-01 2.022416636929916578e+00 6.516898657393483951e-01 -4.880991282865656533e-01 1.274275314269765147e+00 -5.913894246650163167e-01 -7.517352476684214801e-01 8.648863560715501775e-01 1.576254091915184841e+00 -7.665074411194225945e-01 1.535073385305234073e+00 4.525737804793741326e-01 -9.855241696952199426e-02 -3.870115264494878304e-01 1.622752474350044993e+00 1.778738754002056943e+00 -1.904763460558946520e+00 3.993955791796792165e-01 8.769939843939890123e-01 1.604396438841500183e+00 6.533902910108250195e-01 1.337274403154978364e+00 3.486050671129830580e-01 -1.643555363206804731e+00 -5.992894724566990572e-01 7.519046029896846450e-01 -4.219616159855258397e-01 -6.970545066283582170e-01 -1.003500883146216660e+00 -2.094931977097092349e-02 -7.831353231605950871e-01 -1.094182313974467746e+00 -7.937904092188379224e-01 1.261220524300551649e+00 1.177966483351108318e+00 1.695261859868969712e+00 -1.239049406117308960e+00 2.332661545847193096e+00 -9.052133709103856729e-01 7.854508137087573560e-01 -7.069587424697317823e-01 -6.920423072298983458e-01 -9.535534154943631213e-01 -1.905255467468742192e-01 -2.010003528125671846e+00 -7.183099384787312580e-01 1.028087730105399888e+00 -1.526205993551296602e+00 3.940431644591615434e-01 -5.419804958340641576e-01 -1.876334084256875145e-01 2.638350784512877745e+00 -4.974010095134047404e-02 -2.427582798170164313e+00 1.713267543168738083e+00 3.092086080968546868e-01 1.428627768393530006e+00 -4.731996663914160850e-01 1.842882652597557680e+00 -1.337459021825405214e+00 -8.568286341010272755e-02 -3.952493555042169149e-01 -4.060105575300917979e-01 -7.144110715733941186e-01 -5.895089872140010095e-02 -9.468431140288243730e-01 4.398074155033809274e-01 -5.934712134057180677e-01 -1.153484709840262995e-01 4.117067116149393802e-01 1.401475835787644453e-01 1.669491790515350349e+00 -4.619161719334110572e-01 -7.740722362544297797e-01 -9.785180739344130352e-01 2.625055395024897265e-02 -3.631982480881446596e-01 1.248726864283643989e+00 7.295302565428579689e-02 5.631346501200195087e-01 -1.164888137260564838e+00 9.559442782957234819e-01 3.943401743714711749e-01 -2.565418760976855284e-01 9.020580217241758181e-01 2.389152370030207528e+00 1.147335114537739065e+00 -4.917664477182467908e-01 -1.325554430256935534e+00 1.186927133667410539e+00 -7.413771617750896867e-03 4.067160729013830633e-01 -8.699592552747342777e-01 -7.588928946748657589e-01 1.069344733043333884e+00 -8.226529834525244667e-01 -2.193577382939186915e+00 7.313918315440478546e-01 -7.415938224036379145e-01 6.904230212576059067e-01
5.717618500105301482e-01 7.498793043934721680e-01 -5.545464380715288133e-01 -3.653420580232829007e-01 7.142281871225247825e-01 1.503456880059627299e+00 6.565247388433858022e-01 2.629417559503065271e-02 -8.949733341130566844e-01 5.836697291149788303e-01 -3.608840070482381979e-01 7.674310077453500023e-01 1.306455271687337882e+00 -2.366545358542870847e-02 7.484987050299750644e-01 2.062512136458496848e+00 -7.407852073792259295e-01 1.767750999684719604e+00 -9.404692530047747967e-01 9.574626698915473799e-01 1.846964540449618219e+00 -1.365791191190425913e+00 -6.670187572779743279e-01 -5.121367104565743844e-01 7.729068657715167101e-02 -1.107926979193624151e-01 7.946702055108026963e-01 -1.954462998491062198e+00 1.446879469776757521e+00 -9.374093357874326848e-01 -5.132091729094156562e+00 1.510317136225212617e-02 -8.124620501167913525e-03 -8.831491769630820388e-01 7.206163529818969682e-01 8.245408082383659520e-01 -2.568102520480018969e-01 -1.237911015674931919e-01 5.084784732411972152e-01 -5.109230705341934881e-02 1.379407521901574729e-01 8.404395955210286484e-01 4.159200868896751890e-01 -1.097524309819159383e+00 -1.484979969283479972e+00 -1.187232021336463106e+00 1.390296950195456738e+00 2.794208185613074047e-01 -1.231263348720046835e+00 -2.915685209568157910e-01 -3.489477374126478404e-01 -5.367369990050315787e-01 9.103445898513359280e-01 -1.282985495614180182e+00 -7.450419792243715422e-01 -6.718320726259731368e-02 4.821207403699033223e-01 -5.127495841973929158e-01 -3.750868751123515032e-02 5.567049521957853075e-01 2.008998286033286951e-01 -1.262862644514586297e+00 -1.913168999547979698e+00 -6.292864035852295534e-02 -4.483146653091665268e-01 2.164561184089176304e+00 4.529470619934163889e-01 1.141860271455833464e+00 -9.121131811418550783e-02 6.615240317496982048e-01 -2.025741174700925296e+00 -5.745789226368502867e-01 1.296443998041645118e+00 -8.642011996625077463e-01 -1.043992908797144903e+00 9.846610889483806694e-01 1.384685860308517480e+00 3.250330144181470260e-01 -1.680427346151770474e+00 -1.259648104667103308e+00 3.032363038525351939e+00 -6.999601665971755260e-01 9.675839771517988908e-01 -9.961595056733726361e-01 2.166558173015961763e+00 -8.910087822516178369e-01 1.591644767375059777e+00 1.084811436760857728e-01 1.372517142672527557e+00 1.662865806665309698e+00 1.626491537630283979e+00 -6.294533475979264825e-01 9.810978327403128141e-01 8.122594382040528860e-01 -1.150807907065005686e+00 1.785303992331380263e+00 6.439919661427477848e-01 1.609250414362034753e+00 -4.769795418264448639e-01 -7.145086549846341173e-01
-2.369523777321776770e+00 4.788825285004810750e-01 -5.577938705736693037e-02 1.671356550061610102e-01 1.411587601096575550e+00 2.007685499664731976e-01 5.962472327650241155e-01 9.657740457067213180e-01 7.891681644531670647e-01 -3.395019977273995293e-01 8.661521528615946305e-03 1.417832123780887965e+00 -1.464817445411754210e-02 -2.209072939322366813e-01 8.662448305048814357e-01 1.852977948409150866e+00 -8.080295143823132409e-02 -1.278275782274884254e+00 2.420516121300632761e+00 -3.325097293065943926e-01 -8.803729859753242071e-01 -7.821451554195441025e-02 -1.381196835966554737e+00 -1.150658159854788254e+00 6.862975264739700210e-01 8.501987111015463228e-01 -7.415431030206351970e-01 -4.686025722760104872e-01 -2.000824457506298892e-01 -3.752168429658797599e-02 1.030341434222927566e+00 -1.471600614278635755e+00 -7.866582621023714417e-01 8.382343239186949013e-01 1.293397637629053021e+00 5.463154230684605928e-01 6.232064491540785234e-01 1.136017886358526956e-03 1.086276064755241633e+00 -3.758267869905979053e-01 -1.567602930372682390e-01 1.584551131203693619e-01 1.234003321695606559e+00 6.386648155564519369e-01 -2.954761647255832457e-01 -6.139424754752041968e-01 -7.272630227647691736e-01 3.134297431990379912e-01 1.569011587555235510e+00 -7.223371154874069777e-01 -6.493872676780915176e-02 -1.638043224903241654e-02 9.475456489457944054e-01 2.457568861177484298e-01 -5.063028161569625984e-01 -5.654517512035509702e-02 4.336399356904701574e-01 -5.284063849312021360e-02 1.727230698346521098e+00 -1.854938328640662215e+00 7.099936097358051923e-02 3.941380335724981587e-01 -1.462100936324300049e+00 -1.083964134810225799e+00 -1.949604147895643180e+00 -1.164288774590139131e+00 -2.765598737994316103e+00 -4.001832605353924412e-04 -7.404339725571204567e-02 -1.401005430624524095e+00 1.253483693339904059e+00 3.444711284686112762e-01 1.530129642165471426e-01 1.641963493791638307e+00 -2.715828990963358169e-01 -2.269703112694299030e-01 -6.252547108293041722e-01 -1.231902675881503706e+00 4.392649040853145448e-01 1.024382545891889595e+00 -9.912723781179284543e-01 -9.555073510438657491e-01 2.661974043131328127e+00 3.725206256066596056e-01 1.665678582895085968e-01 3.935983724392017602e-01 -3.283525721347507198e-01 -9.904046168993994037e-01 -4.286536598210949345e-01 -9.708405427137164478e-01 -1.571667068087898578e-01 -8.225642123582985743e-01 -6.775061262717473332e-01 -1.121326860534630931e+00 -7.686385354749786236e-01 2.161447704886979709e-02 6.861400135531370292e-01 1.299987112872471373e+00 1.041275389251906658e+00 3.160756405010498593e-01
1.625932734813096747e+00 3.605769295587125667e-01 -1.351104943249437529e+00 -1.077943796624519113e+00 -1.841401877375037799e+00 -9.070155472833896226e-01 5.537783759159113917e-01 4.898711083964231161e-01 6.233200107108863852e-01 3.119295274895245718e-01 -6.336810720137716624e-01 -9.763379827015209456e-01 2.362455869198870906e-01 1.031486317452052770e+00 8.754324062604613710e-01 -3.624320913577149805e-01 1.749998130122641382e-01 -1.027484194643511900e-01 1.211190314349489316e+00 5.229760008974694285e-01 -7.950283571698245622e-01 1.438072315994880945e+00 3.456415633171125545e+00 -9.747781189797345425e-01 -6.535317225930979967e-01 1.266740208711566229e+00 4.929763930096180968e-01 -1.623065973493355019e-01 1.273879375879995557e+00 6.511593427001076684e-01 1.629932876598599645e+00 -2.162397712913051162e+00 1.893832776817087893e-01 -2.704023723936209711e-01 -7.713933892836098982e-01 1.027015190662573296e+00 6.128100369925399554e-02 4.577593173091882850e-01 3.236149830471024003e-01 -1.171507050792043092e+00 -1.058181227421072457e+00 -5.335337604582733873e-01 -6.932227071328825319e-02 5.095326733582546952e-01 4.117409203615607916e-01 -1.537311811887530855e+00 5.978284917610001692e-01 -1.148905473373421859e+00 -2.538656635679251705e-01 1.943045769597420813e+00 -4.886043868041786142e-01 -1.090232008591465629e+00 1.312983849693005745e+00 -1.386231742444879123e+00 -5.214659879268249698e-01 -1.534990693716495672e-02 -1.374490273533303775e+00 -1.458382303061687812e+00 -1.426397332782466110e-01 -1.425548953811440089e+00 -1.574450453373209102e+00 -5.390860146889699944e-01 1.318965471768207554e+00 1.039184879955074026e+00 3.313624414025757026e-01 5.058015317583042236e-01 4.437519803121472428e-01 -2.600478699989429709e-01 4.699266648921009148e-02 -8.256994039521416973e-01 -7.148662963944607540e-01 1.231141525366107770e+00 -8.527151334621100309e-01 -1.585616326424469924e-01 -2.491911069677116064e+00 6.235261508550991039e-01 -2.267219561868487165e+00 1.519752455203094099e+00 6.184819150924364406e-01 9.554607289099388279e-01 -8.473153799573599487e-01 -5.681674693035803081e-01 -7.004748083489217292e-01 -1.380432576353433749e+00 -5.329326374393136279e-01 7.704084373690196497e-01 -1.960039950600971359e-01 8.586725453506487415e-01 -1.454857456456924103e+00 1.654965300559088082e+00 -1.313761565714917312e+00 3.866296269515447359e-01 8.400994934904372491e-02 -7.006535682872510051e-01 -1.294524580066893416e+00 -2.346321420477053277e-01 -2.700964062924728348e-01 -1.410793717840198858e-01 -4.507332313819688574e-01 -1.046940881230572773e-01
1.813295380743665808e-01 -7.057528826152181800e-01 2.666085377011204183e-01 -1.208519608693806369e+00 1.362156369116878984e+00 1.531624311945956496e+00 -9.688035987285322781e-01 -1.256005429394526640e+00 -2.507244020053561062e+00 -1.425425092747194089e+00 1.505658917506601302e+00 1.698223206105721417e+00 -1.115593701996397069e+00 1.398693163749124224e+00 -2.916676330430795216e-01 5.664293875904971021e-01 -2.568531470899990676e-01 -1.327727994777703424e+00 -1.531560262188047972e+00 -3.341266477071768715e-01 -4.832068869224611651e-01 3.611129279461111063e-01 -3.876366151260500215e-01 6.669713009126851944e-01 3.093008505921536422e+00 2.621517128936073693e+00 -4.328835580163176155e-01 -6.741729442096268121e-01 -1.506732586973698718e+00 -1.738104085124914766e+00 1.729610659531727879e-01 9.212417563129654541e-01 8.292069547004577990e-01 -1.738271108651924024e+00 2.832593554944755176e+00 -3.931077466826787825e-01 8.824989530070158628e-01 6.233376730458162901e-02 -2.671686707181744502e+00 8.725148271001923472e-01 -1.184973396505122567e+00 1.402829096513657392e+00 9.433195621289973687e-01 3.604380511860494352e-02 1.603668124448145160e-01 -1.456985905169974505e+00 -3.596658498179319263e-01 -1.540885248407933839e-01 -1.354322774201144108e+00 -1.597969081972490546e+00 3.132964473934093941e-01 -1.326052070053918563e-01 1.178458679364952966e+00 -4.897636973307537556e-01 1.238055187917241673e+00 1.472358768292910902e+00 -6.443681748157630285e-01 -2.542582021976275364e+00 7.134955712087069912e-01 1.120138107565075369e+00 4.321176048440068113e-02 -2.338161608735517483e+00 1.641182452778826351e+00 1.756256737677251323e+00 6.647010135251825158e-01 -1.846947554916635204e+00 1.220219077000839647e+00 -8.764859404233933393e-01 -2.198727301262723977e+00 -1.807453229535561645e+00 -7.190870000915641075e-03 3.276631755732573037e-01 -9.096365265709772663e-01 -7.021642871996278679e-01 -5.153161815306867011e-01 1.688104488680324478e+00 1.876948233823580559e+00 -1.397491077820541161e+00 6.930687390522153324e-01 -1.029162173261649382e+00 -1.038941831615182165e+00 -9.040295311489541241e-01 -1.044375264915681223e+00 9.721480397740392965e-01 7.076483350669915406e-01 -5.802633655800764068e-01 1.634970333503749540e+00 2.035690155788555611e+00 -1.907907788453752362e-01 -1.549883574996280267e+00 -1.138427400961879304e-01 1.039757676203576064e+00 -3.777564987383166817e-01 1.173202104070845131e+00 -5.686856742964011557e-01 2.011975895655405466e+00 -5.539298965400007990e-02 2.499390548558480418e+00 -4.316098968728311336e-01 9.655308095821091285e-01
-4.162824595317650811e+00 -5.152979057247872863e-01 2.089307369414051152e+00 -3.200336857814463087e+00 -1.126356802775791754e+00 -9.218097872941378723e-01 1.811060770538723386e+00 -7.980463320764891177e-01 8.430247593560102892e-01 -1.089137731371220719e+00 1.206420955444030968e-01 -9.403567131243607546e-01 1.786619224520046956e+00 3.936119676757502406e-01 1.770948288385908009e+00 -1.182040600353118975e+00 -6.589773775303927605e-01 1.101220442152817336e+00 -1.050825886826208588e+00 -9.874241755238459817e-01 3.595620566402961127e-01 1.404048367690736487e+00 2.220170510271789688e+00 9.169663383075208341e-01 -2.543867387895756838e-01 3.852393736758855103e-01 -1.470284260923454989e+00 -1.287135316396690987e+00 9.091109190928392536e-01 -7.303084148047879198e-01 -6.139944371560406289e-01 -5.170454954002271508e-01 -1.160509658526012844e+00 -2.215092097790100911e-01 1.477101178916579549e+00 -4.718220746727004866e-01 -8.679174654608122763e-01 -5.911777001247753294e-01 -3.739520349231884588e-01 3.517322437779080158e-02 1.395885787344866236e+00 -6.998535725151917575e-01 1.329448510749090262e-01 2.927928588880126082e+00 2.844706449399462822e-01 -1.607622011288416974e+00 -2.250824640644420782e+00 -8.127477080079322791e-01 -1.423678465955286132e+00 -1.872693429482417127e+00 1.422334516094512447e+00 -6.116892087356068375e-01 1.251853006649283451e+00 -3.045641523443690102e-01 -3.500444995226063005e-01 3.820004575417455528e-01 9.386576965758345326e-01 3.676254000017318280e+00 5.083229218293459084e-01 -1.280207166841160760e-01 -2.517368634909190384e+00 1.426458272950136053e+00 9.405891964547871131e-01 3.886939815162799294e-01 -2.106461250129866958e+00 -4.740009378371454196e-01 1.714761457282033108e+00 2.569271862927291483e-01 -7.136461777619851343e-01 4.370120423054229541e-01 2.444708716263925385e+00 1.301221626931826636e+00 8.250838843317099668e-04 -1.753037488684867862e+00 2.094913002385766276e+00 1.170445248313618791e-01 -9.597195373300904109e-02 -3.016079113680765755e-01 -2.210019788094355508e+00 8.675575968914781555e-01 7.040297682741673002e-01 -6.211488645574111400e-01 1.339492177003093198e+00 -4.251185484488376187e-01 5.373842589948551129e+00 -4.301224871326728705e-01 5.575622914132537522e-01 -1.995523830443261648e+00 -1.089532859228629302e+00 1.002488605980718095e+00 2.149189297672946974e+00 1.227085360923047430e+00 -1.475881890607875668e+00 5.414783875971695970e-01 -4.389076407680657432e+00 1.020839656449735955e+00 -4.950467365799719466e-01 1.216072429674648792e+00 4.074955989707140236e-01 -1.725966464339241835e+00
-2.437517819297789323e+00 -1.077914203602027499e+00 -6.482432091405234686e-01 -1.973955621802562233e+00 -8.106133072363430614e-01 1.267427209001360078e+00 8.788523854829677351e-01 -8.770313477707142313e-01 -2.211940596083130650e+00 4.842073192356740607e-01 -1.443541200203233288e+00 -1.614190213952844954e-01 6.582700423561346770e-02 4.193894409068778528e-01 -1.521478878594071382e+00 -1.504396928318736615e+00 5.866112315037437241e-01 -4.231985676987735645e-01 -5.202457194838859822e-01 -4.480622867657043096e-01 -9.105688695847742598e-02 -1.359135911159309096e+00 -9.050445930929641725e-02 8.028936610579524569e-01 1.786691697782882393e+00 -6.433876315742176333e-01 -3.717532426879070762e-02 6.443013563596321491e-01 7.378087929478264195e-01 -5.798370521285528545e-01 3.306865754711912242e+00 1.751274613092167698e+00 2.040145244068457542e-01 -1.029281562289896756e+00 -5.922699839046583925e+00 -1.954433535317584125e+00 9.998403579497197047e-01 -1.633093040661615314e+00 1.156345288896846180e+00 -2.219497599838523294e-01 8.247146096233672896e-01 8.206886046216037567e-01 2.143194542359099675e+00 7.470724457471067392e-01 1.773770813231938082e+00 4.028202480924637507e-01 -1.080550142399659741e+00 2.271817145187731979e-01 -3.556763156882479238e-01 -5.296805094900924882e-01 1.651049964924098529e-02 -8.572904385095140301e-01 6.875166233737952659e-01 7.161867720692327577e-01 -1.501950303300064071e+00 -1.556734186577174439e-01 -6.458768560946120951e-01 -1.128936424769962643e-01 -1.781827912893835908e+00 1.543857156374268236e+00 9.863567009909189887e-01 -8.261044839013539365e-01 1.180191011987763883e+00 1.193769722575041436e+00 -2.750891191133124636e-01 3.359347180389022913e+00 -5.463804787830133236e-01 9.488939143840428025e-01 -9.084758323348764986e-01 -8.231152805460822952e-01 -1.036240584638762785e+00 -1.035630607600424913e+00 9.306246834922807243e-02 5.931756444764183511e-01 1.787845031900401782e+00 -1.451423752207375573e-01 2.254931954623512480e-01 -1.659791767987797151e+00 -9.316941890862492914e-02 5.246420040203452623e-02 2.166219836394032594e+00 -3.034830489116785435e-01 -6.232303086309861628e-01 8.013830839519289762e-02 -4.425562831514339379e+00 -5.807614045878154441e-01 -6.849604462501969193e-01 3.062789040668348894e-01 1.419584348710328126e+00 -7.725387269297138149e-01 3.312504309947361114e-01 -3.118677682382393623e-01 1.446508256010785143e+00 5.728505734104927249e-01 2.297425833691038033e+00 1.952457380621974936e+00 1.080449427321741540e+00 3.624003108875839985e+00 1.434193246124758847e+00 -4.327456590682380311e-01
