# 
#                 ----------------------------------------------------
#                 Data from a 3D direct N-body simulation. 
# 
#                 rows are i-particle; 
#                 coumns are :mass, tag, x ,y, z, vx, vy, vz, ax, ay, az
# 
#                 NTHU, Computational Physics 
# 
#                 ----------------------------------------------------
#                 Time = 0.0
0.000000000000000000e+00 1.000000000000000000e+00 2.000000000000000000e+00 3.000000000000000000e+00 4.000000000000000000e+00 5.000000000000000000e+00 6.000000000000000000e+00 7.000000000000000000e+00 8.000000000000000000e+00 9.000000000000000000e+00 1.000000000000000000e+01 1.100000000000000000e+01 1.200000000000000000e+01 1.300000000000000000e+01 1.400000000000000000e+01 1.500000000000000000e+01 1.600000000000000000e+01 1.700000000000000000e+01 1.800000000000000000e+01 1.900000000000000000e+01 2.000000000000000000e+01 2.100000000000000000e+01 2.200000000000000000e+01 2.300000000000000000e+01 2.400000000000000000e+01 2.500000000000000000e+01 2.600000000000000000e+01 2.700000000000000000e+01 2.800000000000000000e+01 2.900000000000000000e+01 3.000000000000000000e+01 3.100000000000000000e+01 3.200000000000000000e+01 3.300000000000000000e+01 3.400000000000000000e+01 3.500000000000000000e+01 3.600000000000000000e+01 3.700000000000000000e+01 3.800000000000000000e+01 3.900000000000000000e+01 4.000000000000000000e+01 4.100000000000000000e+01 4.200000000000000000e+01 4.300000000000000000e+01 4.400000000000000000e+01 4.500000000000000000e+01 4.600000000000000000e+01 4.700000000000000000e+01 4.800000000000000000e+01 4.900000000000000000e+01 5.000000000000000000e+01 5.100000000000000000e+01 5.200000000000000000e+01 5.300000000000000000e+01 5.400000000000000000e+01 5.500000000000000000e+01 5.600000000000000000e+01 5.700000000000000000e+01 5.800000000000000000e+01 5.900000000000000000e+01 6.000000000000000000e+01 6.100000000000000000e+01 6.200000000000000000e+01 6.300000000000000000e+01 6.400000000000000000e+01 6.500000000000000000e+01 6.600000000000000000e+01 6.700000000000000000e+01 6.800000000000000000e+01 6.900000000000000000e+01 7.000000000000000000e+01 7.100000000000000000e+01 7.200000000000000000e+01 7.300000000000000000e+01 7.400000000000000000e+01 7.500000000000000000e+01 7.600000000000000000e+01 7.700000000000000000e+01 7.800000000000000000e+01 7.900000000000000000e+01 8.000000000000000000e+01 8.100000000000000000e+01 8.200000000000000000e+01 8.300000000000000000e+01 8.400000000000000000e+01 8.500000000000000000e+01 8.600000000000000000e+01 8.700000000000000000e+01 8.800000000000000000e+01 8.900000000000000000e+01 9.000000000000000000e+01 9.100000000000000000e+01 9.200000000000000000e+01 9.300000000000000000e+01 9.400000000000000000e+01 9.500000000000000000e+01 9.600000000000000000e+01 9.700000000000000000e+01 9.800000000000000000e+01 9.900000000000000000e+01
1.000000000000000056e-01 1.000000000000000056e-01 1.000000000000000056e-01 1.000000000000000056e-01 1.000000000000000056e-01 1.000000000000000056e-01 1.000000000000000056e-01 1.000000000000000056e-01 1.000000000000000056e-01 1.000000000000000056e-01 1.000000000000000056e-01 1.000000000000000056e-01 1.000000000000000056e-01 1.000000000000000056e-01 1.000000000000000056e-01 1.000000000000000056e-01 1.000000000000000056e-01 1.000000000000000056e-01 1.000000000000000056e-01 1.000000000000000056e-01 1.000000000000000056e-01 1.000000000000000056e-01 1.000000000000000056e-01 1.000000000000000056e-01 1.000000000000000056e-01 1.000000000000000056e-01 1.000000000000000056e-01 1.000000000000000056e-01 1.000000000000000056e-01 1.000000000000000056e-01 1.000000000000000056e-01 1.000000000000000056e-01 1.000000000000000056e-01 1.000000000000000056e-01 1.000000000000000056e-01 1.000000000000000056e-01 1.000000000000000056e-01 1.000000000000000056e-01 1.000000000000000056e-01 1.000000000000000056e-01 1.000000000000000056e-01 1.000000000000000056e-01 1.000000000000000056e-01 1.000000000000000056e-01 1.000000000000000056e-01 1.000000000000000056e-01 1.000000000000000056e-01 1.000000000000000056e-01 1.000000000000000056e-01 1.000000000000000056e-01 1.000000000000000056e-01 1.000000000000000056e-01 1.000000000000000056e-01 1.000000000000000056e-01 1.000000000000000056e-01 1.000000000000000056e-01 1.000000000000000056e-01 1.000000000000000056e-01 1.000000000000000056e-01 1.000000000000000056e-01 1.000000000000000056e-01 1.000000000000000056e-01 1.000000000000000056e-01 1.000000000000000056e-01 1.000000000000000056e-01 1.000000000000000056e-01 1.000000000000000056e-01 1.000000000000000056e-01 1.000000000000000056e-01 1.000000000000000056e-01 1.000000000000000056e-01 1.000000000000000056e-01 1.000000000000000056e-01 1.000000000000000056e-01 1.000000000000000056e-01 1.000000000000000056e-01 1.000000000000000056e-01 1.000000000000000056e-01 1.000000000000000056e-01 1.000000000000000056e-01 1.000000000000000056e-01 1.000000000000000056e-01 1.000000000000000056e-01 1.000000000000000056e-01 1.000000000000000056e-01 1.000000000000000056e-01 1.000000000000000056e-01 1.000000000000000056e-01 1.000000000000000056e-01 1.000000000000000056e-01 1.000000000000000056e-01 1.000000000000000056e-01 1.000000000000000056e-01 1.000000000000000056e-01 1.000000000000000056e-01 1.000000000000000056e-01 1.000000000000000056e-01 1.000000000000000056e-01 1.000000000000000056e-01 1.000000000000000056e-01
2.586856069751417575e-01 -1.550962839612549382e-01 2.773370518327692213e+00 -1.411043418451567444e+00 -7.742480398240275674e-01 2.469534881405167082e-01 -3.907855427105959012e-01 -7.299267723490271420e-01 1.111917507396221749e+00 -1.551006557177244893e+00 -1.739460730207497141e+00 2.568921684150222706e-01 3.377418502863034910e-01 9.008478374399323529e-01 -1.238927383086523976e-01 -4.344902080344114625e-01 -1.078132036036566210e-01 2.361287114166542855e-01 5.208508219176160026e-01 2.335933869145039310e+00 1.144466442528022876e+00 -8.427700388150426436e-01 -1.001431749835266283e+00 7.338326779985449022e-01 -1.539410435007399380e+00 -7.281820346366251195e-01 -3.095864461687919400e-01 1.400967159905067483e+00 -5.288196218964935635e-01 1.089582958905810584e+00 -1.454670719867704187e-01 -5.687150497770989688e-01 -9.810328037142667101e-01 1.853691858593570496e-01 -6.300640825092639341e-01 6.832797372294652227e-01 -5.437030450434277018e-01 1.604427834370828032e+00 1.842669403561352226e+00 8.088003945916562021e-01 -6.266913232399595746e-01 -8.658935205221476306e-01 -2.958142382724135988e+00 8.952141551413854703e-01 -6.802489704011197569e-01 -8.179295404992028562e-01 1.134736130162449008e+00 5.617176833546180109e-02 -4.291163070403911095e-01 -8.183534610477498639e-01 2.546783697249249467e+00 -1.981817633913014742e-01 -5.050425739223187716e-01 1.695621742048613267e+00 -1.477998001480831103e-01 -5.614315269755485449e-01 -1.887378274918439125e+00 -1.272707531900742151e+00 -4.066062390726440379e-01 2.342270503376544077e+00 2.043236218122879588e+00 1.079959229241673313e+00 9.597039990377420615e-01 -1.111747485132878355e+00 -5.061839666865699527e-01 -7.544843250670764112e-01 -1.237916084264037986e+00 9.869310256828952577e-01 -1.135837309612200530e+00 -9.317323121868270608e-01 1.332966083624252285e+00 2.639144366833392485e+00 -1.373960572276439640e+00 4.500091809455266101e-01 -1.518096096076859025e+00 1.812190274028227521e-01 -1.121352561907935225e-02 7.014028369200976387e-01 -3.893013019085593829e-01 -2.136775164800955640e+00 1.472304483722287838e+00 -6.124700411931048860e-01 1.119612791197740487e+00 4.315106873236833063e-01 -5.502708561463757198e-01 9.799267737378720700e-01 1.972299196521359654e+00 4.659273177333159710e-01 5.562905098936103965e-01 5.885068331693281696e-01 9.780593129878411007e-01 -1.255345190159276481e+00 -2.137061094387797122e-01 1.671760966658628167e+00 -2.064859987124644913e+00 -2.210335706753007445e-01 -6.105223507285386653e-01 5.659575446855794056e-02 -1.058778590840742106e-02 -1.615640393906959682e+00
-4.552808546105490128e-01 -9.343522145549149061e-01 -1.075688040405441637e+00 1.809133707900746124e+00 1.929859279238168357e+00 -3.521616347368251021e-01 -8.770944751197562450e-01 -1.151404452226319153e+00 2.890330979962878466e-01 1.378157244674337589e-01 -4.886611861831337278e-02 -1.688210141074497350e-01 -3.635305215578337606e-02 1.108743315038430932e+00 -2.331762031439522931e-01 5.003991751354321116e-02 1.888340678225586933e+00 1.669552235618713965e-01 -1.709829035331033475e+00 -4.014418599187238312e-01 2.219157024579492710e+00 9.777384734516413323e-01 -1.152306677891578257e+00 -3.219532728460069299e-02 3.345382721001982640e-01 -1.062129335369865757e+00 4.224919892955386058e-01 -4.396964599603928048e-02 7.679733378194104620e-01 -1.838639663685740055e+00 -1.357278909284874713e+00 1.795075138187411934e+00 -2.776490145255393616e-01 -3.715409762485292200e-01 2.686337200327185704e-01 -1.265600501863267446e+00 -1.308292412316297781e+00 1.372359433669519735e+00 -1.088198370164988438e+00 -1.616278551474092051e+00 2.793440595369587331e+00 -2.284653476856433885e-01 1.947789508540292758e+00 -2.155319360343097568e+00 3.185527675169095851e-01 -4.526476527434920016e-01 -5.929752246470955113e-01 8.570796787247835224e-01 1.951849100926457969e-01 1.034026374483712624e-01 -1.321162716579877605e+00 -1.282612404456803912e+00 3.227419979764169500e-01 1.111494258803147117e+00 5.345266446162958429e-01 3.176346500914646875e-01 -1.176501277409462753e+00 2.487125560724103845e+00 2.099649574797132434e+00 -2.857481836112270024e-01 -4.392438776141925905e-01 -1.499443669706021609e+00 2.752706458473595796e-02 -6.552886553473039610e-01 -3.078996882360871545e-01 -1.809746198211797663e-01 -1.968290884633232540e+00 -1.316844873282216444e+00 1.536024775066467507e+00 1.102890619558947627e+00 2.655229029875143087e+00 -1.376338640394478285e-01 -9.782189433090343611e-01 3.397259591589779637e-01 6.858862410748219895e-01 -1.749380558720928791e-01 5.333551647813354890e-01 4.664938441075998088e-01 -1.116597545297430827e+00 -1.279110697402400729e-02 1.061666888543469633e-01 -1.980835909892890781e-02 -4.164278344169783930e-01 -7.223999290649798510e-01 -9.036462809561245091e-02 1.457819067351519227e+00 1.058724938288904821e-01 4.022781549819081648e-01 -2.103943604153250824e-01 6.342656449199943758e-01 3.333248298934345794e-02 -1.210908216954982297e+00 -1.182157813511807015e-01 -1.626878397176830804e+00 -4.602162319329414775e-01 2.267160865690410754e-01 1.372026240878562175e+00 1.402058540609157911e+00 6.685078132405057882e-01 2.184497883892893011e-01
-4.690375117176669439e-01 -4.766537219341718257e-01 -1.071524008462927169e+00 -1.877237639974509653e+00 -1.362230431449227286e+00 -1.001274069165950964e+00 -7.692728109807293047e-01 2.765917997753065682e-01 2.162566125621307456e-01 1.005429572600157861e+00 -5.199728473718592259e-01 3.125406704869589380e-01 1.666892072733665797e+00 2.264579134141620625e-02 1.092540849521064644e-01 -2.151475628881417412e-01 1.448433240071771655e+00 7.258644532390101656e-01 4.061657613412712475e-01 -2.739047678332551250e-01 7.232053909687484738e-01 -1.118067677762140555e+00 4.697884387126188277e-01 5.054106210396894228e-02 -2.925994944049498669e-01 -4.639605943256551734e-01 -2.690085431086867707e-01 -5.277948519631933122e-01 -3.604019850371494721e-02 -9.970650614365242359e-02 -6.644732053264065241e-01 -2.461954366145069795e+00 -1.886449157533640064e-01 -6.722179646494719218e-01 -4.561305323771477904e-01 1.627741678361571687e-01 6.045306771604562757e-01 7.406410127075935268e-01 8.558258831400809841e-02 9.747435828329001906e-01 1.772523751905159262e-01 1.102165461261567003e+00 1.471614166728542061e+00 -9.698666887482100263e-01 -2.611867062450008992e-01 -4.925233239661517826e-01 -3.110715119040885490e-01 2.740266495386269319e-01 -1.390181138722478948e+00 1.095154654467949351e+00 5.628580845890456263e-01 -4.226814300045255157e-01 -8.402291615998569441e-01 9.402293093556358949e-02 8.276344423772169501e-02 8.123822453868746463e-01 -7.104475407108026830e-03 -1.208425224640770290e+00 -1.214474644563983796e+00 8.254569391889619023e-01 3.659498275953265711e-01 -1.924727565348173797e-01 -7.868084409262319223e-01 -2.446057445491604199e+00 3.558640171813799991e-01 -5.779539507189739300e-01 -7.043587722151871677e-01 9.612139507229199298e-01 -1.832529904466868809e+00 4.427567079158149788e-02 -1.051513151681511715e+00 -1.008392694269105494e+00 -1.039816518960753541e-02 -1.624315238445165344e-01 2.413309731037068806e-01 1.298587981348777065e+00 1.973748421768976469e+00 7.084438216614439288e-01 -8.666526568127280727e-02 1.896150214655103250e+00 -2.290913098996032460e+00 -4.584932265349435099e-01 2.671143302714571011e+00 1.941726556949532334e+00 8.643906990097910414e-02 -3.617580567565362171e-01 -9.742702023936220534e-01 4.338540305664015939e-01 7.165876965866435633e-01 -8.293479716576773741e-01 2.483076742104448065e-01 4.221970425649050340e-01 7.025346811005241943e-01 -9.920785183228997273e-02 -1.076300582694209584e+00 1.680559127216069981e-01 3.327715546182542783e-02 -1.633361700110783354e-01 3.597173942449210848e+00 -7.561007744942307429e-01
1.780461042198596897e-02 -1.810541025992667696e-01 8.618013851361859823e-01 1.251670274827015004e-02 -7.870128182637050607e-01 -9.178470456110453535e-01 -9.541229809571752929e-01 -2.735258988382531342e+00 6.296954307247752958e-01 2.209293381473836693e+00 1.000601279630451312e+00 5.012254316277882094e-01 8.957244105049216865e-01 -7.265612569194708215e-01 8.910859955731452731e-01 -1.284753947733614510e+00 -1.876274088300232457e+00 -2.465919625526108161e-01 9.055306516437210407e-01 6.573630945344742793e-01 -1.501189884880682057e-01 -3.457928324074149296e-01 7.461816974021330262e-01 -9.959881568720737599e-01 -4.314155163649429636e-01 1.882361314609903635e+00 9.782940142405988082e-01 -4.017600969811483957e-01 -2.384031524353211307e+00 -9.285680400099981247e-02 2.982450024000567468e-01 -6.001049223441698999e-01 -2.239931761976806657e-01 -2.224175283236483835e+00 -2.851665197684389419e+00 9.019059685525511461e-02 -4.067038360808987729e-01 1.447503896482095431e+00 -5.588583909676962669e-02 -6.506645367603781649e-01 -2.112353492834356528e-01 1.343720496175417223e+00 6.228204091374397455e-01 -1.758790622511897661e+00 1.055824220919786421e-01 1.685250264789427410e+00 -6.242571125560142375e-01 1.052197664714013881e+00 -1.556233526986999349e+00 5.517006969554129059e-01 -8.583627836936297273e-02 6.891028992273775730e-03 1.774827592950024846e-01 -2.810442876656004674e-01 -6.594926775751209780e-01 1.378622523561738866e+00 -8.146882230720471629e-03 3.488482054214481765e-01 4.960781987510068380e-01 -5.597457792708081525e-01 1.478883162053933886e-01 -2.643146518455823935e-01 5.849940657946239853e-01 -2.480605492047846805e-01 -2.196307055984031642e+00 -2.935068750027026163e-01 -1.041847237012382799e+00 1.001381650505185350e+00 8.644045136105255045e-02 -2.268205214524102731e-01 2.116747352483880906e+00 4.816452292236521049e-01 -1.554872873832189584e-01 -2.599006328038702573e+00 -8.694745401948291708e-01 -1.194592368917603453e+00 4.005121635746250464e-01 2.128868879515747103e+00 7.502386946149293134e-01 9.377761044469667961e-01 1.577588420170767503e+00 1.085788180670207159e-01 -2.499841247226791685e-01 1.067227028356470431e+00 5.784607638482281988e-01 1.803510864242617640e+00 3.966004477620765911e-01 -1.132579439845410540e+00 1.043497302992826725e+00 5.372312041756638346e-01 -5.061673999668353519e-01 9.523271127842676542e-02 9.019710020961713148e-01 -2.124132405199233853e-01 1.465693249728953873e+00 -1.123517019945418527e+00 -5.528491063260165816e-01 -1.191339927167219592e+00 2.951683266984370668e-01 2.940180976067239271e-01
1.661071867001157942e+00 1.532144275515082699e+00 -5.146925015950226667e-01 -4.335035556329793205e-01 -9.534994154700364710e-01 1.772860645918904909e+00 1.311797414517498428e+00 -2.427848988589569601e-01 -3.655146424076921585e-01 8.033226667476598415e-01 2.294218943189640578e-02 -6.318908155371003033e-02 1.546658089513784473e+00 5.171597217685799941e-03 7.458483513542389920e-01 1.148719765633135603e+00 -4.779634095107577751e-01 -8.752730022930175213e-01 -8.095567083962402766e-01 -1.056117981959953239e-01 1.010310809088131201e+00 2.557069854991669278e-01 2.343219974612452017e+00 -7.013692038268782847e-01 -6.441058683877884938e-01 1.142224980369505039e+00 6.101881980720749166e-01 4.900209162485405501e-01 -2.532438042704344028e+00 -4.058033959304653493e+00 -3.352154405042123142e-01 1.253515155566838901e-01 4.530904729581808343e-01 -1.163012789788297335e-01 9.977616477013108442e-02 5.488704057594724628e-03 -1.311136276530688871e-01 5.771262610062343201e-01 -3.978478648799690376e-01 4.800099718136831006e-01 -5.853785864351424006e-01 -4.460654036616827356e-01 -7.893439426592682162e-01 -1.220245643634653376e+00 -5.682045045917398784e-01 -8.966366102992866516e-01 -1.799102220450105871e-01 1.378323187121943683e+00 -1.208088376311397427e+00 -2.042878247883170406e+00 -1.326592324708374848e+00 -2.555912809263827801e-01 -1.199598796050215466e+00 1.139731664778408593e+00 2.069785689560144082e+00 5.356677002366838636e-01 -3.343749963819681037e-01 9.353216240364758960e-01 2.205151606254711627e+00 -3.712275283690779637e-01 1.064202051011167827e+00 1.073747643750403880e+00 2.683114803025224981e-01 -1.015126224769776542e+00 -1.726869342240842375e-01 1.436483939815854205e+00 -2.391611252380383412e+00 1.445038322275514098e+00 -1.118856096149187795e+00 -3.397152819898789922e-01 2.011112772384714642e+00 -1.031366253682656886e+00 5.935611817428769754e-01 -1.586383820858505711e+00 4.598273897300519941e-02 1.866713786494351046e+00 1.679462594833397882e+00 -8.845635815195885820e-01 9.631317252304490983e-01 -1.802094890524717608e+00 3.477496296356747951e-01 -1.426867826664778960e+00 -6.824484423969441327e-01 -1.251780296744438692e+00 -1.505725397335628823e-01 4.282175924949406243e-01 9.930657320505009711e-02 1.380346586398824904e+00 4.822187004389962839e-01 1.091489878846759298e+00 7.559385284454974707e-01 -1.381770218317975640e+00 -6.688829673033271916e-01 1.821736214875837312e-01 3.278646117745788180e-01 -1.686938929266630083e-01 -7.445121834717499665e-01 -1.590390726166663438e+00 -7.525110541954347365e-01 1.403242026327887748e-01
1.434399759708285149e+00 -1.209937262896868315e+00 -3.190500419195217430e-01 2.268560340482934923e-01 -1.616338736290757527e+00 -5.779314612734286205e-02 2.817469303374962042e-01 2.734148334078748022e+00 4.956360392803711434e-01 8.800618017734138099e-02 4.897011505206428916e-01 -1.005021561510605621e-01 -5.946000327781856276e-01 1.066124868595269115e+00 1.681534216395527359e+00 9.715784503587759913e-01 6.320870203335698934e-01 -5.224721369717162389e-01 -1.915750815240883309e+00 1.617437250627063589e-02 3.131984862869352515e-01 1.314159536931988281e+00 9.775060584129309227e-01 -4.657757028445623677e-03 -7.014612739157662924e-01 -9.416956866283060501e-01 -1.033140694532105552e+00 -1.195201640329053155e-01 -4.898492817260385879e-01 -1.052633689312524046e-01 -7.936838081545894985e-01 -1.176888146689682335e+00 -1.509414637120077424e-02 -1.555051636375062996e-01 -5.785892358074321562e-01 -9.066511633622028610e-01 -1.370990748096625689e+00 -1.539645324796913295e+00 1.072744164349163976e+00 1.331324572861422473e+00 6.556646467891436014e-01 -2.628454182321752208e-01 3.209229766252617161e-02 1.677400415396964051e-01 -1.880596991920284067e+00 -1.393996824338243901e+00 -3.597344863163521866e-01 8.580027990171894547e-01 3.836428106144360584e-01 -1.133103447927967355e+00 -6.453802369405520212e-01 1.199236733506774399e+00 -4.877167346044689045e-01 8.459126091279383086e-01 1.980291922420803985e+00 -1.888445719272003887e+00 3.904601817930768437e-01 -1.044340935473259124e+00 -5.532477670133774117e-01 -2.941580912881057719e-01 -4.134844347021106592e-01 -1.337063158576242250e+00 3.437121053372523827e-01 -7.433693040694563381e-01 -6.016535392291874063e-01 1.028407557174495279e+00 -7.341517322928731160e-01 6.578786914340083447e-01 -1.800155558344357365e+00 1.211434759378801518e+00 1.684894354124028659e+00 -4.396188896650867761e-01 2.503888107762768378e-01 -5.960775184282820494e-01 3.581974451520026914e-01 -9.751388603657936693e-01 4.941244262945966859e-01 3.409107848058452461e-01 5.569858259135016532e-01 1.010837104818887305e-01 2.170375962362682820e-01 -9.766243720291342134e-01 5.443250519004716459e-01 3.946158637773937716e-01 -5.879218495009593815e-01 3.707285737911082402e-01 3.428256850584526227e-01 -1.196663989631976621e+00 9.814421053263767680e-01 -8.069633904561093751e-02 -6.255055552699648747e-01 -5.554982166734446780e-01 -1.192678545688469427e+00 1.760309777257925479e+00 4.724024552945981226e-01 6.478800880813674334e-01 -2.786472999233245984e-01 8.387087015019373260e-01 7.784350728806171960e-01 6.696247272730047051e-01
-1.616931396171497726e+00 -8.703979808253158312e-01 -8.281435236310948911e-01 1.101116626728838588e+00 4.365383512412895350e-01 -8.328292486679528261e-01 6.216862888736187642e-01 2.100174688814103741e-01 -2.514751607076645357e+00 1.491866897453059115e+00 2.161381271074477084e+00 -9.893336682211746336e-01 -5.444929312443127500e-01 -9.074556825871539223e-01 -7.766102398699670228e-01 -7.889615789212730546e-01 5.989142062784028747e-02 -2.440023478644936517e-01 1.835647256544387790e-02 -1.307476129966373746e+00 -4.173334232234676699e-01 6.416477761930202695e-01 6.007010744359295717e-01 -9.336954561742426550e-01 1.798887075269996139e+00 1.654667651601964495e+00 -1.044014569427300199e+00 -1.603801011198687121e+00 1.015604183291533680e+00 -5.690826974314584508e-01 -6.054929820705732268e-01 -6.136736054019849285e-02 2.703285934728934414e+00 -1.684017518140540348e-01 1.203614787704519129e+00 -4.440891399941474527e-01 -2.065428573855594419e-01 -9.075909359886750183e-01 -1.127963039307681159e+00 -1.043984145620326237e-01 1.859263348841878605e-01 1.177030442434525259e+00 4.615498007727644181e-01 -3.105920024572776938e-01 2.961476643025735100e+00 1.658019930074274839e+00 -1.241052825229582046e+00 -5.317262439129814000e-01 1.705402745323481573e-01 1.085468151338147003e+00 -1.041213572897541573e+00 -1.311712258356657335e-01 1.334517865710926621e-01 -1.276787259430812727e+00 -6.097235054692574652e-01 7.704103018973877948e-01 1.747926382999234196e+00 5.521312516243199742e-01 -5.205668803535011824e-01 -1.203409110527861925e+00 -1.064923574486624114e+00 -7.024829506050795924e-01 -1.020622711221023327e+00 3.361221724709543834e-01 1.162482417340725771e+00 2.015130871166002979e+00 6.904637125741701631e-01 -1.101492186593081346e+00 1.526055745283328435e-01 1.634785135779029730e+00 -3.832778739044925276e-01 -1.110016274435028372e+00 1.653903247086598638e+00 -1.077557788312470066e+00 1.676388956737321578e+00 -6.618789016431349259e-02 7.982539795807883087e-02 -1.655176680449695681e+00 2.335795332076471831e-01 7.254268825977536750e-01 -4.347370774854351638e-01 2.836137309815275342e-01 -4.027224243908004153e-01 -2.173668051868885009e-01 1.675962796121207132e+00 -7.902413196233022408e-01 -9.974314575285688766e-01 -7.951041664561817601e-01 -1.104314888281693108e+00 -7.983441977467414796e-01 -2.015601147116225622e+00 2.716863834859966964e+00 2.236505592500103723e-01 -1.240749717514904926e+00 1.299794087806802168e+00 -7.600405022502232377e-02 3.503410131989423415e-01 -3.004485264208607287e-01 1.505365013801532141e-02 1.476961391225930731e+00
1.419054789576281062e+00 5.926124887539275798e-01 4.228228272450339498e-01 -9.205557595754034761e-01 -7.214969349032342993e-01 3.073069341900891427e-01 8.704151381244005226e-01 1.374424911315043740e+00 -1.608186185238484223e+00 -2.247575477698466329e-01 6.455126672868775062e-01 9.753469067466603581e-01 -2.048367496839607060e-01 -1.258210369351682179e+00 1.361983875501439734e+00 4.756178632793531258e-01 -8.913285284907659367e-01 -6.149701626063429627e-01 1.722846777147517994e+00 6.932249078514042540e-02 -9.980305201617537536e-01 -9.645350598547522969e-01 9.355218502650149981e-01 5.991796508536404442e-01 -8.618742056670659624e-01 1.696673006926117111e+00 -2.103036268235807249e+00 -1.370993433209855006e-01 -2.329626794039456161e+00 2.163104909773939877e+00 2.704915148684573722e+00 -4.566104162370363539e-01 6.741864545797495722e-01 -9.552465544195531955e-02 -1.821564739532791855e+00 7.667167649172902388e-01 1.824682197018545615e+00 -7.898021155397441095e-01 5.341959875349043818e-01 1.729616532290443764e+00 -9.572221013490537223e-01 1.200442319984534212e+00 -3.109798040566841837e-01 1.074742166991068393e+00 -2.420817006995954479e+00 2.324597284610682824e+00 8.271628593980916433e-01 -2.314528720555953711e+00 -1.871202157889544360e-01 -8.845900468147956941e-01 5.787860364570681648e-01 2.460637819788611846e+00 -1.134682211629794768e+00 -8.451157505105136858e-01 -2.192957339259641092e+00 -1.267603779468805980e+00 8.900179307210678292e-01 -9.925947137657600283e-01 -1.163753870597516116e+00 -1.207836238767297649e-01 1.441339008016214451e-01 4.742366828082610897e-01 -1.965152127900842427e-01 2.623632416456525562e-01 1.515164558536733486e+00 8.925417818665197789e-01 1.239948981758202784e+00 1.803123920574131178e-01 5.183773774009758223e-02 -1.534508467719472913e+00 -6.995479138078233294e-01 -1.002882347076985148e-01 7.097492670660160430e-01 -1.070316825557044549e+00 -9.422623917895844858e-01 4.648606666831643364e-01 -5.875773977821764360e-01 -1.354932556436329039e+00 1.642299801558335659e+00 2.155707061520733409e-02 -5.917228719881456600e-02 5.450603545515869675e-01 9.942926938494037192e-02 6.339370317384301901e-01 4.513879190722661638e-01 -1.439069614497918703e+00 -3.218224751790969007e-01 -1.384409476076870149e+00 6.777921041666464808e-01 -1.039893401841581300e+00 8.079399686603415676e-01 1.627544750038450561e+00 5.551180705186826714e-01 1.151372592871103606e+00 4.317146381655730392e-01 -4.977413919429287681e-01 -2.238909263393987992e+00 -1.873082031206038778e+00 -1.372572961241488310e-01 -7.684116886145028191e-01
-6.604817152690570792e-01 6.055729968850169787e-01 4.608095635617979746e-01 8.117311126856175951e-01 5.983083691286805728e-01 2.920043237903006350e+00 2.530114036358322771e+00 -1.269193949268708210e-01 -2.539838946238295314e-01 -9.893684934269261211e-01 2.076996673420740125e-01 -6.538817175606709275e-01 -1.952036911517342821e+00 -1.560416927284898336e-01 -2.361660017775732701e-01 5.817573444555435708e-02 -7.455061008049064242e-01 -2.133436346228721803e+00 -5.269265647583730727e-01 2.143841496868069130e-01 -3.716494803845317163e-01 1.152882214753653489e+00 -1.715869635960068917e+00 7.004802166509436212e-01 -1.751714437156526583e-01 9.556885729853236144e-01 1.321925266256518183e+00 6.810444815909707517e-01 -2.672643770492882376e-01 9.869387744526574371e-03 2.611147596668069948e+00 9.400690953216916945e-01 -6.540942403014742279e-01 2.352942751556269751e+00 3.528456995744953861e+00 -1.901623549946509784e-01 -1.684182754817637129e+00 -6.673684430499088327e-01 -1.175387413935092273e-01 -1.123772945869058848e+00 -1.650082620359414609e-01 -1.749106233768045193e+00 -2.492756236854320739e-01 7.084565372334035160e-01 -1.688892872185977057e+00 1.307479774144840956e+00 5.216687226998377724e-01 -9.973487072939200004e-01 2.207587334814528290e+00 -1.933542419231628395e+00 -3.816276474231486970e-01 -5.517723507102934022e-01 2.717973585046271623e+00 -1.456184494136648633e-01 -5.193619687123300910e-01 -1.546405997134906229e+00 -1.412100503425547243e-02 1.873273051684951895e-01 3.004429693404875867e-01 -8.183354716148720787e-01 -3.502312171233253890e-01 6.946702740752814798e-01 1.531708341870322787e+00 9.493337227186207095e-01 -1.873949355896550983e+00 3.114468891453198385e+00 5.154803438696694551e-01 -1.041398140117729465e+00 8.355653348548527370e-01 -3.602374369114986763e-01 2.992278528945780947e-01 5.518171729387996161e-01 2.768060702558408637e-01 9.820259925322794015e-01 -6.484889571855984025e-01 -1.568026864927414055e+00 -1.396935501382222666e+00 -2.008781896969469738e+00 -7.979874810186955436e-01 -7.168100231865873750e-01 8.835146521745441683e-01 1.635521451457392361e+00 -8.986234784817919152e-01 -1.316437155614892829e+00 -1.151689254780910998e+00 6.395946001346946019e-01 8.293808277645324800e-01 -5.567172506578856872e-01 -1.683896094408393385e+00 1.448617045861867236e+00 -1.024264897906499883e+00 -8.253502426929608671e-01 -1.903407356598060707e+00 1.759915492862944852e-01 7.950856229983421786e-01 -1.419135270898794765e+00 -2.598572682692058544e-01 2.875755322648684276e-01 -6.566569640083278481e-01 1.549460559657773295e+00
