# 
#                 ----------------------------------------------------
#                 Data from a 3D direct N-body simulation. 
# 
#                 rows are i-particle; 
#                 coumns are :mass, tag, x ,y, z, vx, vy, vz, ax, ay, az
# 
#                 NTHU, Computational Physics 
# 
#                 ----------------------------------------------------
#                 Time = 0.0
0.000000000000000000e+00 1.000000000000000000e+00 2.000000000000000000e+00 3.000000000000000000e+00 4.000000000000000000e+00 5.000000000000000000e+00 6.000000000000000000e+00 7.000000000000000000e+00 8.000000000000000000e+00 9.000000000000000000e+00 1.000000000000000000e+01 1.100000000000000000e+01 1.200000000000000000e+01 1.300000000000000000e+01 1.400000000000000000e+01 1.500000000000000000e+01 1.600000000000000000e+01 1.700000000000000000e+01 1.800000000000000000e+01 1.900000000000000000e+01 2.000000000000000000e+01 2.100000000000000000e+01 2.200000000000000000e+01 2.300000000000000000e+01 2.400000000000000000e+01 2.500000000000000000e+01 2.600000000000000000e+01 2.700000000000000000e+01 2.800000000000000000e+01 2.900000000000000000e+01 3.000000000000000000e+01 3.100000000000000000e+01 3.200000000000000000e+01 3.300000000000000000e+01 3.400000000000000000e+01 3.500000000000000000e+01 3.600000000000000000e+01 3.700000000000000000e+01 3.800000000000000000e+01 3.900000000000000000e+01 4.000000000000000000e+01 4.100000000000000000e+01 4.200000000000000000e+01 4.300000000000000000e+01 4.400000000000000000e+01 4.500000000000000000e+01 4.600000000000000000e+01 4.700000000000000000e+01 4.800000000000000000e+01 4.900000000000000000e+01 5.000000000000000000e+01 5.100000000000000000e+01 5.200000000000000000e+01 5.300000000000000000e+01 5.400000000000000000e+01 5.500000000000000000e+01 5.600000000000000000e+01 5.700000000000000000e+01 5.800000000000000000e+01 5.900000000000000000e+01 6.000000000000000000e+01 6.100000000000000000e+01 6.200000000000000000e+01 6.300000000000000000e+01 6.400000000000000000e+01 6.500000000000000000e+01 6.600000000000000000e+01 6.700000000000000000e+01 6.800000000000000000e+01 6.900000000000000000e+01 7.000000000000000000e+01 7.100000000000000000e+01 7.200000000000000000e+01 7.300000000000000000e+01 7.400000000000000000e+01 7.500000000000000000e+01 7.600000000000000000e+01 7.700000000000000000e+01 7.800000000000000000e+01 7.900000000000000000e+01 8.000000000000000000e+01 8.100000000000000000e+01 8.200000000000000000e+01 8.300000000000000000e+01 8.400000000000000000e+01 8.500000000000000000e+01 8.600000000000000000e+01 8.700000000000000000e+01 8.800000000000000000e+01 8.900000000000000000e+01 9.000000000000000000e+01 9.100000000000000000e+01 9.200000000000000000e+01 9.300000000000000000e+01 9.400000000000000000e+01 9.500000000000000000e+01 9.600000000000000000e+01 9.700000000000000000e+01 9.800000000000000000e+01 9.900000000000000000e+01 1.000000000000000000e+02 1.010000000000000000e+02 1.020000000000000000e+02 1.030000000000000000e+02 1.040000000000000000e+02 1.050000000000000000e+02 1.060000000000000000e+02 1.070000000000000000e+02 1.080000000000000000e+02 1.090000000000000000e+02 1.100000000000000000e+02 1.110000000000000000e+02 1.120000000000000000e+02 1.130000000000000000e+02 1.140000000000000000e+02 1.150000000000000000e+02 1.160000000000000000e+02 1.170000000000000000e+02 1.180000000000000000e+02 1.190000000000000000e+02 1.200000000000000000e+02 1.210000000000000000e+02 1.220000000000000000e+02 1.230000000000000000e+02 1.240000000000000000e+02 1.250000000000000000e+02 1.260000000000000000e+02 1.270000000000000000e+02 1.280000000000000000e+02 1.290000000000000000e+02 1.300000000000000000e+02 1.310000000000000000e+02 1.320000000000000000e+02 1.330000000000000000e+02 1.340000000000000000e+02 1.350000000000000000e+02 1.360000000000000000e+02 1.370000000000000000e+02 1.380000000000000000e+02 1.390000000000000000e+02 1.400000000000000000e+02 1.410000000000000000e+02 1.420000000000000000e+02 1.430000000000000000e+02 1.440000000000000000e+02 1.450000000000000000e+02 1.460000000000000000e+02 1.470000000000000000e+02 1.480000000000000000e+02 1.490000000000000000e+02 1.500000000000000000e+02 1.510000000000000000e+02 1.520000000000000000e+02 1.530000000000000000e+02 1.540000000000000000e+02 1.550000000000000000e+02 1.560000000000000000e+02 1.570000000000000000e+02 1.580000000000000000e+02 1.590000000000000000e+02 1.600000000000000000e+02 1.610000000000000000e+02 1.620000000000000000e+02 1.630000000000000000e+02 1.640000000000000000e+02 1.650000000000000000e+02 1.660000000000000000e+02 1.670000000000000000e+02 1.680000000000000000e+02 1.690000000000000000e+02 1.700000000000000000e+02 1.710000000000000000e+02 1.720000000000000000e+02 1.730000000000000000e+02 1.740000000000000000e+02 1.750000000000000000e+02 1.760000000000000000e+02 1.770000000000000000e+02 1.780000000000000000e+02 1.790000000000000000e+02 1.800000000000000000e+02 1.810000000000000000e+02 1.820000000000000000e+02 1.830000000000000000e+02 1.840000000000000000e+02 1.850000000000000000e+02 1.860000000000000000e+02 1.870000000000000000e+02 1.880000000000000000e+02 1.890000000000000000e+02 1.900000000000000000e+02 1.910000000000000000e+02 1.920000000000000000e+02 1.930000000000000000e+02 1.940000000000000000e+02 1.950000000000000000e+02 1.960000000000000000e+02 1.970000000000000000e+02 1.980000000000000000e+02 1.990000000000000000e+02 2.000000000000000000e+02 2.010000000000000000e+02 2.020000000000000000e+02 2.030000000000000000e+02 2.040000000000000000e+02 2.050000000000000000e+02 2.060000000000000000e+02 2.070000000000000000e+02 2.080000000000000000e+02 2.090000000000000000e+02 2.100000000000000000e+02 2.110000000000000000e+02 2.120000000000000000e+02 2.130000000000000000e+02 2.140000000000000000e+02 2.150000000000000000e+02 2.160000000000000000e+02 2.170000000000000000e+02 2.180000000000000000e+02 2.190000000000000000e+02 2.200000000000000000e+02 2.210000000000000000e+02 2.220000000000000000e+02 2.230000000000000000e+02 2.240000000000000000e+02 2.250000000000000000e+02 2.260000000000000000e+02 2.270000000000000000e+02 2.280000000000000000e+02 2.290000000000000000e+02 2.300000000000000000e+02 2.310000000000000000e+02 2.320000000000000000e+02 2.330000000000000000e+02 2.340000000000000000e+02 2.350000000000000000e+02 2.360000000000000000e+02 2.370000000000000000e+02 2.380000000000000000e+02 2.390000000000000000e+02 2.400000000000000000e+02 2.410000000000000000e+02 2.420000000000000000e+02 2.430000000000000000e+02 2.440000000000000000e+02 2.450000000000000000e+02 2.460000000000000000e+02 2.470000000000000000e+02 2.480000000000000000e+02 2.490000000000000000e+02 2.500000000000000000e+02 2.510000000000000000e+02 2.520000000000000000e+02 2.530000000000000000e+02 2.540000000000000000e+02 2.550000000000000000e+02 2.560000000000000000e+02 2.570000000000000000e+02 2.580000000000000000e+02 2.590000000000000000e+02 2.600000000000000000e+02 2.610000000000000000e+02 2.620000000000000000e+02 2.630000000000000000e+02 2.640000000000000000e+02 2.650000000000000000e+02 2.660000000000000000e+02 2.670000000000000000e+02 2.680000000000000000e+02 2.690000000000000000e+02 2.700000000000000000e+02 2.710000000000000000e+02 2.720000000000000000e+02 2.730000000000000000e+02 2.740000000000000000e+02 2.750000000000000000e+02 2.760000000000000000e+02 2.770000000000000000e+02 2.780000000000000000e+02 2.790000000000000000e+02 2.800000000000000000e+02 2.810000000000000000e+02 2.820000000000000000e+02 2.830000000000000000e+02 2.840000000000000000e+02 2.850000000000000000e+02 2.860000000000000000e+02 2.870000000000000000e+02 2.880000000000000000e+02 2.890000000000000000e+02 2.900000000000000000e+02 2.910000000000000000e+02 2.920000000000000000e+02 2.930000000000000000e+02 2.940000000000000000e+02 2.950000000000000000e+02 2.960000000000000000e+02 2.970000000000000000e+02 2.980000000000000000e+02 2.990000000000000000e+02 3.000000000000000000e+02 3.010000000000000000e+02 3.020000000000000000e+02 3.030000000000000000e+02 3.040000000000000000e+02 3.050000000000000000e+02 3.060000000000000000e+02 3.070000000000000000e+02 3.080000000000000000e+02 3.090000000000000000e+02 3.100000000000000000e+02 3.110000000000000000e+02 3.120000000000000000e+02 3.130000000000000000e+02 3.140000000000000000e+02 3.150000000000000000e+02 3.160000000000000000e+02 3.170000000000000000e+02 3.180000000000000000e+02 3.190000000000000000e+02 3.200000000000000000e+02 3.210000000000000000e+02 3.220000000000000000e+02 3.230000000000000000e+02 3.240000000000000000e+02 3.250000000000000000e+02 3.260000000000000000e+02 3.270000000000000000e+02 3.280000000000000000e+02 3.290000000000000000e+02 3.300000000000000000e+02 3.310000000000000000e+02 3.320000000000000000e+02 3.330000000000000000e+02 3.340000000000000000e+02 3.350000000000000000e+02 3.360000000000000000e+02 3.370000000000000000e+02 3.380000000000000000e+02 3.390000000000000000e+02 3.400000000000000000e+02 3.410000000000000000e+02 3.420000000000000000e+02 3.430000000000000000e+02 3.440000000000000000e+02 3.450000000000000000e+02 3.460000000000000000e+02 3.470000000000000000e+02 3.480000000000000000e+02 3.490000000000000000e+02 3.500000000000000000e+02 3.510000000000000000e+02 3.520000000000000000e+02 3.530000000000000000e+02 3.540000000000000000e+02 3.550000000000000000e+02 3.560000000000000000e+02 3.570000000000000000e+02 3.580000000000000000e+02 3.590000000000000000e+02 3.600000000000000000e+02 3.610000000000000000e+02 3.620000000000000000e+02 3.630000000000000000e+02 3.640000000000000000e+02 3.650000000000000000e+02 3.660000000000000000e+02 3.670000000000000000e+02 3.680000000000000000e+02 3.690000000000000000e+02 3.700000000000000000e+02 3.710000000000000000e+02 3.720000000000000000e+02 3.730000000000000000e+02 3.740000000000000000e+02 3.750000000000000000e+02 3.760000000000000000e+02 3.770000000000000000e+02 3.780000000000000000e+02 3.790000000000000000e+02 3.800000000000000000e+02 3.810000000000000000e+02 3.820000000000000000e+02 3.830000000000000000e+02 3.840000000000000000e+02 3.850000000000000000e+02 3.860000000000000000e+02 3.870000000000000000e+02 3.880000000000000000e+02 3.890000000000000000e+02 3.900000000000000000e+02 3.910000000000000000e+02 3.920000000000000000e+02 3.930000000000000000e+02 3.940000000000000000e+02 3.950000000000000000e+02 3.960000000000000000e+02 3.970000000000000000e+02 3.980000000000000000e+02 3.990000000000000000e+02 4.000000000000000000e+02 4.010000000000000000e+02 4.020000000000000000e+02 4.030000000000000000e+02 4.040000000000000000e+02 4.050000000000000000e+02 4.060000000000000000e+02 4.070000000000000000e+02 4.080000000000000000e+02 4.090000000000000000e+02 4.100000000000000000e+02 4.110000000000000000e+02 4.120000000000000000e+02 4.130000000000000000e+02 4.140000000000000000e+02 4.150000000000000000e+02 4.160000000000000000e+02 4.170000000000000000e+02 4.180000000000000000e+02 4.190000000000000000e+02 4.200000000000000000e+02 4.210000000000000000e+02 4.220000000000000000e+02 4.230000000000000000e+02 4.240000000000000000e+02 4.250000000000000000e+02 4.260000000000000000e+02 4.270000000000000000e+02 4.280000000000000000e+02 4.290000000000000000e+02 4.300000000000000000e+02 4.310000000000000000e+02 4.320000000000000000e+02 4.330000000000000000e+02 4.340000000000000000e+02 4.350000000000000000e+02 4.360000000000000000e+02 4.370000000000000000e+02 4.380000000000000000e+02 4.390000000000000000e+02 4.400000000000000000e+02 4.410000000000000000e+02 4.420000000000000000e+02 4.430000000000000000e+02 4.440000000000000000e+02 4.450000000000000000e+02 4.460000000000000000e+02 4.470000000000000000e+02 4.480000000000000000e+02 4.490000000000000000e+02 4.500000000000000000e+02 4.510000000000000000e+02 4.520000000000000000e+02 4.530000000000000000e+02 4.540000000000000000e+02 4.550000000000000000e+02 4.560000000000000000e+02 4.570000000000000000e+02 4.580000000000000000e+02 4.590000000000000000e+02 4.600000000000000000e+02 4.610000000000000000e+02 4.620000000000000000e+02 4.630000000000000000e+02 4.640000000000000000e+02 4.650000000000000000e+02 4.660000000000000000e+02 4.670000000000000000e+02 4.680000000000000000e+02 4.690000000000000000e+02 4.700000000000000000e+02 4.710000000000000000e+02 4.720000000000000000e+02 4.730000000000000000e+02 4.740000000000000000e+02 4.750000000000000000e+02 4.760000000000000000e+02 4.770000000000000000e+02 4.780000000000000000e+02 4.790000000000000000e+02 4.800000000000000000e+02 4.810000000000000000e+02 4.820000000000000000e+02 4.830000000000000000e+02 4.840000000000000000e+02 4.850000000000000000e+02 4.860000000000000000e+02 4.870000000000000000e+02 4.880000000000000000e+02 4.890000000000000000e+02 4.900000000000000000e+02 4.910000000000000000e+02 4.920000000000000000e+02 4.930000000000000000e+02 4.940000000000000000e+02 4.950000000000000000e+02 4.960000000000000000e+02 4.970000000000000000e+02 4.980000000000000000e+02 4.990000000000000000e+02 5.000000000000000000e+02 5.010000000000000000e+02 5.020000000000000000e+02 5.030000000000000000e+02 5.040000000000000000e+02 5.050000000000000000e+02 5.060000000000000000e+02 5.070000000000000000e+02 5.080000000000000000e+02 5.090000000000000000e+02 5.100000000000000000e+02 5.110000000000000000e+02 5.120000000000000000e+02 5.130000000000000000e+02 5.140000000000000000e+02 5.150000000000000000e+02 5.160000000000000000e+02 5.170000000000000000e+02 5.180000000000000000e+02 5.190000000000000000e+02 5.200000000000000000e+02 5.210000000000000000e+02 5.220000000000000000e+02 5.230000000000000000e+02 5.240000000000000000e+02 5.250000000000000000e+02 5.260000000000000000e+02 5.270000000000000000e+02 5.280000000000000000e+02 5.290000000000000000e+02 5.300000000000000000e+02 5.310000000000000000e+02 5.320000000000000000e+02 5.330000000000000000e+02 5.340000000000000000e+02 5.350000000000000000e+02 5.360000000000000000e+02 5.370000000000000000e+02 5.380000000000000000e+02 5.390000000000000000e+02 5.400000000000000000e+02 5.410000000000000000e+02 5.420000000000000000e+02 5.430000000000000000e+02 5.440000000000000000e+02 5.450000000000000000e+02 5.460000000000000000e+02 5.470000000000000000e+02 5.480000000000000000e+02 5.490000000000000000e+02 5.500000000000000000e+02 5.510000000000000000e+02 5.520000000000000000e+02 5.530000000000000000e+02 5.540000000000000000e+02 5.550000000000000000e+02 5.560000000000000000e+02 5.570000000000000000e+02 5.580000000000000000e+02 5.590000000000000000e+02 5.600000000000000000e+02 5.610000000000000000e+02 5.620000000000000000e+02 5.630000000000000000e+02 5.640000000000000000e+02 5.650000000000000000e+02 5.660000000000000000e+02 5.670000000000000000e+02 5.680000000000000000e+02 5.690000000000000000e+02 5.700000000000000000e+02 5.710000000000000000e+02 5.720000000000000000e+02 5.730000000000000000e+02 5.740000000000000000e+02 5.750000000000000000e+02 5.760000000000000000e+02 5.770000000000000000e+02 5.780000000000000000e+02 5.790000000000000000e+02 5.800000000000000000e+02 5.810000000000000000e+02 5.820000000000000000e+02 5.830000000000000000e+02 5.840000000000000000e+02 5.850000000000000000e+02 5.860000000000000000e+02 5.870000000000000000e+02 5.880000000000000000e+02 5.890000000000000000e+02 5.900000000000000000e+02 5.910000000000000000e+02 5.920000000000000000e+02 5.930000000000000000e+02 5.940000000000000000e+02 5.950000000000000000e+02 5.960000000000000000e+02 5.970000000000000000e+02 5.980000000000000000e+02 5.990000000000000000e+02 6.000000000000000000e+02 6.010000000000000000e+02 6.020000000000000000e+02 6.030000000000000000e+02 6.040000000000000000e+02 6.050000000000000000e+02 6.060000000000000000e+02 6.070000000000000000e+02 6.080000000000000000e+02 6.090000000000000000e+02 6.100000000000000000e+02 6.110000000000000000e+02 6.120000000000000000e+02 6.130000000000000000e+02 6.140000000000000000e+02 6.150000000000000000e+02 6.160000000000000000e+02 6.170000000000000000e+02 6.180000000000000000e+02 6.190000000000000000e+02 6.200000000000000000e+02 6.210000000000000000e+02 6.220000000000000000e+02 6.230000000000000000e+02 6.240000000000000000e+02 6.250000000000000000e+02 6.260000000000000000e+02 6.270000000000000000e+02 6.280000000000000000e+02 6.290000000000000000e+02 6.300000000000000000e+02 6.310000000000000000e+02 6.320000000000000000e+02 6.330000000000000000e+02 6.340000000000000000e+02 6.350000000000000000e+02 6.360000000000000000e+02 6.370000000000000000e+02 6.380000000000000000e+02 6.390000000000000000e+02 6.400000000000000000e+02 6.410000000000000000e+02 6.420000000000000000e+02 6.430000000000000000e+02 6.440000000000000000e+02 6.450000000000000000e+02 6.460000000000000000e+02 6.470000000000000000e+02 6.480000000000000000e+02 6.490000000000000000e+02 6.500000000000000000e+02 6.510000000000000000e+02 6.520000000000000000e+02 6.530000000000000000e+02 6.540000000000000000e+02 6.550000000000000000e+02 6.560000000000000000e+02 6.570000000000000000e+02 6.580000000000000000e+02 6.590000000000000000e+02 6.600000000000000000e+02 6.610000000000000000e+02 6.620000000000000000e+02 6.630000000000000000e+02 6.640000000000000000e+02 6.650000000000000000e+02 6.660000000000000000e+02 6.670000000000000000e+02 6.680000000000000000e+02 6.690000000000000000e+02 6.700000000000000000e+02 6.710000000000000000e+02 6.720000000000000000e+02 6.730000000000000000e+02 6.740000000000000000e+02 6.750000000000000000e+02 6.760000000000000000e+02 6.770000000000000000e+02 6.780000000000000000e+02 6.790000000000000000e+02 6.800000000000000000e+02 6.810000000000000000e+02 6.820000000000000000e+02 6.830000000000000000e+02 6.840000000000000000e+02 6.850000000000000000e+02 6.860000000000000000e+02 6.870000000000000000e+02 6.880000000000000000e+02 6.890000000000000000e+02 6.900000000000000000e+02 6.910000000000000000e+02 6.920000000000000000e+02 6.930000000000000000e+02 6.940000000000000000e+02 6.950000000000000000e+02 6.960000000000000000e+02 6.970000000000000000e+02 6.980000000000000000e+02 6.990000000000000000e+02 7.000000000000000000e+02 7.010000000000000000e+02 7.020000000000000000e+02 7.030000000000000000e+02 7.040000000000000000e+02 7.050000000000000000e+02 7.060000000000000000e+02 7.070000000000000000e+02 7.080000000000000000e+02 7.090000000000000000e+02 7.100000000000000000e+02 7.110000000000000000e+02 7.120000000000000000e+02 7.130000000000000000e+02 7.140000000000000000e+02 7.150000000000000000e+02 7.160000000000000000e+02 7.170000000000000000e+02 7.180000000000000000e+02 7.190000000000000000e+02 7.200000000000000000e+02 7.210000000000000000e+02 7.220000000000000000e+02 7.230000000000000000e+02 7.240000000000000000e+02 7.250000000000000000e+02 7.260000000000000000e+02 7.270000000000000000e+02 7.280000000000000000e+02 7.290000000000000000e+02 7.300000000000000000e+02 7.310000000000000000e+02 7.320000000000000000e+02 7.330000000000000000e+02 7.340000000000000000e+02 7.350000000000000000e+02 7.360000000000000000e+02 7.370000000000000000e+02 7.380000000000000000e+02 7.390000000000000000e+02 7.400000000000000000e+02 7.410000000000000000e+02 7.420000000000000000e+02 7.430000000000000000e+02 7.440000000000000000e+02 7.450000000000000000e+02 7.460000000000000000e+02 7.470000000000000000e+02 7.480000000000000000e+02 7.490000000000000000e+02 7.500000000000000000e+02 7.510000000000000000e+02 7.520000000000000000e+02 7.530000000000000000e+02 7.540000000000000000e+02 7.550000000000000000e+02 7.560000000000000000e+02 7.570000000000000000e+02 7.580000000000000000e+02 7.590000000000000000e+02 7.600000000000000000e+02 7.610000000000000000e+02 7.620000000000000000e+02 7.630000000000000000e+02 7.640000000000000000e+02 7.650000000000000000e+02 7.660000000000000000e+02 7.670000000000000000e+02 7.680000000000000000e+02 7.690000000000000000e+02 7.700000000000000000e+02 7.710000000000000000e+02 7.720000000000000000e+02 7.730000000000000000e+02 7.740000000000000000e+02 7.750000000000000000e+02 7.760000000000000000e+02 7.770000000000000000e+02 7.780000000000000000e+02 7.790000000000000000e+02 7.800000000000000000e+02 7.810000000000000000e+02 7.820000000000000000e+02 7.830000000000000000e+02 7.840000000000000000e+02 7.850000000000000000e+02 7.860000000000000000e+02 7.870000000000000000e+02 7.880000000000000000e+02 7.890000000000000000e+02 7.900000000000000000e+02 7.910000000000000000e+02 7.920000000000000000e+02 7.930000000000000000e+02 7.940000000000000000e+02 7.950000000000000000e+02 7.960000000000000000e+02 7.970000000000000000e+02 7.980000000000000000e+02 7.990000000000000000e+02 8.000000000000000000e+02 8.010000000000000000e+02 8.020000000000000000e+02 8.030000000000000000e+02 8.040000000000000000e+02 8.050000000000000000e+02 8.060000000000000000e+02 8.070000000000000000e+02 8.080000000000000000e+02 8.090000000000000000e+02 8.100000000000000000e+02 8.110000000000000000e+02 8.120000000000000000e+02 8.130000000000000000e+02 8.140000000000000000e+02 8.150000000000000000e+02 8.160000000000000000e+02 8.170000000000000000e+02 8.180000000000000000e+02 8.190000000000000000e+02 8.200000000000000000e+02 8.210000000000000000e+02 8.220000000000000000e+02 8.230000000000000000e+02 8.240000000000000000e+02 8.250000000000000000e+02 8.260000000000000000e+02 8.270000000000000000e+02 8.280000000000000000e+02 8.290000000000000000e+02 8.300000000000000000e+02 8.310000000000000000e+02 8.320000000000000000e+02 8.330000000000000000e+02 8.340000000000000000e+02 8.350000000000000000e+02 8.360000000000000000e+02 8.370000000000000000e+02 8.380000000000000000e+02 8.390000000000000000e+02 8.400000000000000000e+02 8.410000000000000000e+02 8.420000000000000000e+02 8.430000000000000000e+02 8.440000000000000000e+02 8.450000000000000000e+02 8.460000000000000000e+02 8.470000000000000000e+02 8.480000000000000000e+02 8.490000000000000000e+02 8.500000000000000000e+02 8.510000000000000000e+02 8.520000000000000000e+02 8.530000000000000000e+02 8.540000000000000000e+02 8.550000000000000000e+02 8.560000000000000000e+02 8.570000000000000000e+02 8.580000000000000000e+02 8.590000000000000000e+02 8.600000000000000000e+02 8.610000000000000000e+02 8.620000000000000000e+02 8.630000000000000000e+02 8.640000000000000000e+02 8.650000000000000000e+02 8.660000000000000000e+02 8.670000000000000000e+02 8.680000000000000000e+02 8.690000000000000000e+02 8.700000000000000000e+02 8.710000000000000000e+02 8.720000000000000000e+02 8.730000000000000000e+02 8.740000000000000000e+02 8.750000000000000000e+02 8.760000000000000000e+02 8.770000000000000000e+02 8.780000000000000000e+02 8.790000000000000000e+02 8.800000000000000000e+02 8.810000000000000000e+02 8.820000000000000000e+02 8.830000000000000000e+02 8.840000000000000000e+02 8.850000000000000000e+02 8.860000000000000000e+02 8.870000000000000000e+02 8.880000000000000000e+02 8.890000000000000000e+02 8.900000000000000000e+02 8.910000000000000000e+02 8.920000000000000000e+02 8.930000000000000000e+02 8.940000000000000000e+02 8.950000000000000000e+02 8.960000000000000000e+02 8.970000000000000000e+02 8.980000000000000000e+02 8.990000000000000000e+02 9.000000000000000000e+02 9.010000000000000000e+02 9.020000000000000000e+02 9.030000000000000000e+02 9.040000000000000000e+02 9.050000000000000000e+02 9.060000000000000000e+02 9.070000000000000000e+02 9.080000000000000000e+02 9.090000000000000000e+02 9.100000000000000000e+02 9.110000000000000000e+02 9.120000000000000000e+02 9.130000000000000000e+02 9.140000000000000000e+02 9.150000000000000000e+02 9.160000000000000000e+02 9.170000000000000000e+02 9.180000000000000000e+02 9.190000000000000000e+02 9.200000000000000000e+02 9.210000000000000000e+02 9.220000000000000000e+02 9.230000000000000000e+02 9.240000000000000000e+02 9.250000000000000000e+02 9.260000000000000000e+02 9.270000000000000000e+02 9.280000000000000000e+02 9.290000000000000000e+02 9.300000000000000000e+02 9.310000000000000000e+02 9.320000000000000000e+02 9.330000000000000000e+02 9.340000000000000000e+02 9.350000000000000000e+02 9.360000000000000000e+02 9.370000000000000000e+02 9.380000000000000000e+02 9.390000000000000000e+02 9.400000000000000000e+02 9.410000000000000000e+02 9.420000000000000000e+02 9.430000000000000000e+02 9.440000000000000000e+02 9.450000000000000000e+02 9.460000000000000000e+02 9.470000000000000000e+02 9.480000000000000000e+02 9.490000000000000000e+02 9.500000000000000000e+02 9.510000000000000000e+02 9.520000000000000000e+02 9.530000000000000000e+02 9.540000000000000000e+02 9.550000000000000000e+02 9.560000000000000000e+02 9.570000000000000000e+02 9.580000000000000000e+02 9.590000000000000000e+02 9.600000000000000000e+02 9.610000000000000000e+02 9.620000000000000000e+02 9.630000000000000000e+02 9.640000000000000000e+02 9.650000000000000000e+02 9.660000000000000000e+02 9.670000000000000000e+02 9.680000000000000000e+02 9.690000000000000000e+02 9.700000000000000000e+02 9.710000000000000000e+02 9.720000000000000000e+02 9.730000000000000000e+02 9.740000000000000000e+02 9.750000000000000000e+02 9.760000000000000000e+02 9.770000000000000000e+02 9.780000000000000000e+02 9.790000000000000000e+02 9.800000000000000000e+02 9.810000000000000000e+02 9.820000000000000000e+02 9.830000000000000000e+02 9.840000000000000000e+02 9.850000000000000000e+02 9.860000000000000000e+02 9.870000000000000000e+02 9.880000000000000000e+02 9.890000000000000000e+02 9.900000000000000000e+02 9.910000000000000000e+02 9.920000000000000000e+02 9.930000000000000000e+02 9.940000000000000000e+02 9.950000000000000000e+02 9.960000000000000000e+02 9.970000000000000000e+02 9.980000000000000000e+02 9.990000000000000000e+02 1.000000000000000000e+03 1.001000000000000000e+03 1.002000000000000000e+03 1.003000000000000000e+03 1.004000000000000000e+03 1.005000000000000000e+03
9.940357852882704057e-03 9.940357852882704057e-03 9.940357852882704057e-03 9.940357852882704057e-03 9.940357852882704057e-03 9.940357852882704057e-03 9.940357852882704057e-03 9.940357852882704057e-03 9.940357852882704057e-03 9.940357852882704057e-03 9.940357852882704057e-03 9.940357852882704057e-03 9.940357852882704057e-03 9.940357852882704057e-03 9.940357852882704057e-03 9.940357852882704057e-03 9.940357852882704057e-03 9.940357852882704057e-03 9.940357852882704057e-03 9.940357852882704057e-03 9.940357852882704057e-03 9.940357852882704057e-03 9.940357852882704057e-03 9.940357852882704057e-03 9.940357852882704057e-03 9.940357852882704057e-03 9.940357852882704057e-03 9.940357852882704057e-03 9.940357852882704057e-03 9.940357852882704057e-03 9.940357852882704057e-03 9.940357852882704057e-03 9.940357852882704057e-03 9.940357852882704057e-03 9.940357852882704057e-03 9.940357852882704057e-03 9.940357852882704057e-03 9.940357852882704057e-03 9.940357852882704057e-03 9.940357852882704057e-03 9.940357852882704057e-03 9.940357852882704057e-03 9.940357852882704057e-03 9.940357852882704057e-03 9.940357852882704057e-03 9.940357852882704057e-03 9.940357852882704057e-03 9.940357852882704057e-03 9.940357852882704057e-03 9.940357852882704057e-03 9.940357852882704057e-03 9.940357852882704057e-03 9.940357852882704057e-03 9.940357852882704057e-03 9.940357852882704057e-03 9.940357852882704057e-03 9.940357852882704057e-03 9.940357852882704057e-03 9.940357852882704057e-03 9.940357852882704057e-03 9.940357852882704057e-03 9.940357852882704057e-03 9.940357852882704057e-03 9.940357852882704057e-03 9.940357852882704057e-03 9.940357852882704057e-03 9.940357852882704057e-03 9.940357852882704057e-03 9.940357852882704057e-03 9.940357852882704057e-03 9.940357852882704057e-03 9.940357852882704057e-03 9.940357852882704057e-03 9.940357852882704057e-03 9.940357852882704057e-03 9.940357852882704057e-03 9.940357852882704057e-03 9.940357852882704057e-03 9.940357852882704057e-03 9.940357852882704057e-03 9.940357852882704057e-03 9.940357852882704057e-03 9.940357852882704057e-03 9.940357852882704057e-03 9.940357852882704057e-03 9.940357852882704057e-03 9.940357852882704057e-03 9.940357852882704057e-03 9.940357852882704057e-03 9.940357852882704057e-03 9.940357852882704057e-03 9.940357852882704057e-03 9.940357852882704057e-03 9.940357852882704057e-03 9.940357852882704057e-03 9.940357852882704057e-03 9.940357852882704057e-03 9.940357852882704057e-03 9.940357852882704057e-03 9.940357852882704057e-03 9.940357852882704057e-03 9.940357852882704057e-03 9.940357852882704057e-03 9.940357852882704057e-03 9.940357852882704057e-03 9.940357852882704057e-03 9.940357852882704057e-03 9.940357852882704057e-03 9.940357852882704057e-03 9.940357852882704057e-03 9.940357852882704057e-03 9.940357852882704057e-03 9.940357852882704057e-03 9.940357852882704057e-03 9.940357852882704057e-03 9.940357852882704057e-03 9.940357852882704057e-03 9.940357852882704057e-03 9.940357852882704057e-03 9.940357852882704057e-03 9.940357852882704057e-03 9.940357852882704057e-03 9.940357852882704057e-03 9.940357852882704057e-03 9.940357852882704057e-03 9.940357852882704057e-03 9.940357852882704057e-03 9.940357852882704057e-03 9.940357852882704057e-03 9.940357852882704057e-03 9.940357852882704057e-03 9.940357852882704057e-03 9.940357852882704057e-03 9.940357852882704057e-03 9.940357852882704057e-03 9.940357852882704057e-03 9.940357852882704057e-03 9.940357852882704057e-03 9.940357852882704057e-03 9.940357852882704057e-03 9.940357852882704057e-03 9.940357852882704057e-03 9.940357852882704057e-03 9.940357852882704057e-03 9.940357852882704057e-03 9.940357852882704057e-03 9.940357852882704057e-03 9.940357852882704057e-03 9.940357852882704057e-03 9.940357852882704057e-03 9.940357852882704057e-03 9.940357852882704057e-03 9.940357852882704057e-03 9.940357852882704057e-03 9.940357852882704057e-03 9.940357852882704057e-03 9.940357852882704057e-03 9.940357852882704057e-03 9.940357852882704057e-03 9.940357852882704057e-03 9.940357852882704057e-03 9.940357852882704057e-03 9.940357852882704057e-03 9.940357852882704057e-03 9.940357852882704057e-03 9.940357852882704057e-03 9.940357852882704057e-03 9.940357852882704057e-03 9.940357852882704057e-03 9.940357852882704057e-03 9.940357852882704057e-03 9.940357852882704057e-03 9.940357852882704057e-03 9.940357852882704057e-03 9.940357852882704057e-03 9.940357852882704057e-03 9.940357852882704057e-03 9.940357852882704057e-03 9.940357852882704057e-03 9.940357852882704057e-03 9.940357852882704057e-03 9.940357852882704057e-03 9.940357852882704057e-03 9.940357852882704057e-03 9.940357852882704057e-03 9.940357852882704057e-03 9.940357852882704057e-03 9.940357852882704057e-03 9.940357852882704057e-03 9.940357852882704057e-03 9.940357852882704057e-03 9.940357852882704057e-03 9.940357852882704057e-03 9.940357852882704057e-03 9.940357852882704057e-03 9.940357852882704057e-03 9.940357852882704057e-03 9.940357852882704057e-03 9.940357852882704057e-03 9.940357852882704057e-03 9.940357852882704057e-03 9.940357852882704057e-03 9.940357852882704057e-03 9.940357852882704057e-03 9.940357852882704057e-03 9.940357852882704057e-03 9.940357852882704057e-03 9.940357852882704057e-03 9.940357852882704057e-03 9.940357852882704057e-03 9.940357852882704057e-03 9.940357852882704057e-03 9.940357852882704057e-03 9.940357852882704057e-03 9.940357852882704057e-03 9.940357852882704057e-03 9.940357852882704057e-03 9.940357852882704057e-03 9.940357852882704057e-03 9.940357852882704057e-03 9.940357852882704057e-03 9.940357852882704057e-03 9.940357852882704057e-03 9.940357852882704057e-03 9.940357852882704057e-03 9.940357852882704057e-03 9.940357852882704057e-03 9.940357852882704057e-03 9.940357852882704057e-03 9.940357852882704057e-03 9.940357852882704057e-03 9.940357852882704057e-03 9.940357852882704057e-03 9.940357852882704057e-03 9.940357852882704057e-03 9.940357852882704057e-03 9.940357852882704057e-03 9.940357852882704057e-03 9.940357852882704057e-03 9.940357852882704057e-03 9.940357852882704057e-03 9.940357852882704057e-03 9.940357852882704057e-03 9.940357852882704057e-03 9.940357852882704057e-03 9.940357852882704057e-03 9.940357852882704057e-03 9.940357852882704057e-03 9.940357852882704057e-03 9.940357852882704057e-03 9.940357852882704057e-03 9.940357852882704057e-03 9.940357852882704057e-03 9.940357852882704057e-03 9.940357852882704057e-03 9.940357852882704057e-03 9.940357852882704057e-03 9.940357852882704057e-03 9.940357852882704057e-03 9.940357852882704057e-03 9.940357852882704057e-03 9.940357852882704057e-03 9.940357852882704057e-03 9.940357852882704057e-03 9.940357852882704057e-03 9.940357852882704057e-03 9.940357852882704057e-03 9.940357852882704057e-03 9.940357852882704057e-03 9.940357852882704057e-03 9.940357852882704057e-03 9.940357852882704057e-03 9.940357852882704057e-03 9.940357852882704057e-03 9.940357852882704057e-03 9.940357852882704057e-03 9.940357852882704057e-03 9.940357852882704057e-03 9.940357852882704057e-03 9.940357852882704057e-03 9.940357852882704057e-03 9.940357852882704057e-03 9.940357852882704057e-03 9.940357852882704057e-03 9.940357852882704057e-03 9.940357852882704057e-03 9.940357852882704057e-03 9.940357852882704057e-03 9.940357852882704057e-03 9.940357852882704057e-03 9.940357852882704057e-03 9.940357852882704057e-03 9.940357852882704057e-03 9.940357852882704057e-03 9.940357852882704057e-03 9.940357852882704057e-03 9.940357852882704057e-03 9.940357852882704057e-03 9.940357852882704057e-03 9.940357852882704057e-03 9.940357852882704057e-03 9.940357852882704057e-03 9.940357852882704057e-03 9.940357852882704057e-03 9.940357852882704057e-03 9.940357852882704057e-03 9.940357852882704057e-03 9.940357852882704057e-03 9.940357852882704057e-03 9.940357852882704057e-03 9.940357852882704057e-03 9.940357852882704057e-03 9.940357852882704057e-03 9.940357852882704057e-03 9.940357852882704057e-03 9.940357852882704057e-03 9.940357852882704057e-03 9.940357852882704057e-03 9.940357852882704057e-03 9.940357852882704057e-03 9.940357852882704057e-03 9.940357852882704057e-03 9.940357852882704057e-03 9.940357852882704057e-03 9.940357852882704057e-03 9.940357852882704057e-03 9.940357852882704057e-03 9.940357852882704057e-03 9.940357852882704057e-03 9.940357852882704057e-03 9.940357852882704057e-03 9.940357852882704057e-03 9.940357852882704057e-03 9.940357852882704057e-03 9.940357852882704057e-03 9.940357852882704057e-03 9.940357852882704057e-03 9.940357852882704057e-03 9.940357852882704057e-03 9.940357852882704057e-03 9.940357852882704057e-03 9.940357852882704057e-03 9.940357852882704057e-03 9.940357852882704057e-03 9.940357852882704057e-03 9.940357852882704057e-03 9.940357852882704057e-03 9.940357852882704057e-03 9.940357852882704057e-03 9.940357852882704057e-03 9.940357852882704057e-03 9.940357852882704057e-03 9.940357852882704057e-03 9.940357852882704057e-03 9.940357852882704057e-03 9.940357852882704057e-03 9.940357852882704057e-03 9.940357852882704057e-03 9.940357852882704057e-03 9.940357852882704057e-03 9.940357852882704057e-03 9.940357852882704057e-03 9.940357852882704057e-03 9.940357852882704057e-03 9.940357852882704057e-03 9.940357852882704057e-03 9.940357852882704057e-03 9.940357852882704057e-03 9.940357852882704057e-03 9.940357852882704057e-03 9.940357852882704057e-03 9.940357852882704057e-03 9.940357852882704057e-03 9.940357852882704057e-03 9.940357852882704057e-03 9.940357852882704057e-03 9.940357852882704057e-03 9.940357852882704057e-03 9.940357852882704057e-03 9.940357852882704057e-03 9.940357852882704057e-03 9.940357852882704057e-03 9.940357852882704057e-03 9.940357852882704057e-03 9.940357852882704057e-03 9.940357852882704057e-03 9.940357852882704057e-03 9.940357852882704057e-03 9.940357852882704057e-03 9.940357852882704057e-03 9.940357852882704057e-03 9.940357852882704057e-03 9.940357852882704057e-03 9.940357852882704057e-03 9.940357852882704057e-03 9.940357852882704057e-03 9.940357852882704057e-03 9.940357852882704057e-03 9.940357852882704057e-03 9.940357852882704057e-03 9.940357852882704057e-03 9.940357852882704057e-03 9.940357852882704057e-03 9.940357852882704057e-03 9.940357852882704057e-03 9.940357852882704057e-03 9.940357852882704057e-03 9.940357852882704057e-03 9.940357852882704057e-03 9.940357852882704057e-03 9.940357852882704057e-03 9.940357852882704057e-03 9.940357852882704057e-03 9.940357852882704057e-03 9.940357852882704057e-03 9.940357852882704057e-03 9.940357852882704057e-03 9.940357852882704057e-03 9.940357852882704057e-03 9.940357852882704057e-03 9.940357852882704057e-03 9.940357852882704057e-03 9.940357852882704057e-03 9.940357852882704057e-03 9.940357852882704057e-03 9.940357852882704057e-03 9.940357852882704057e-03 9.940357852882704057e-03 9.940357852882704057e-03 9.940357852882704057e-03 9.940357852882704057e-03 9.940357852882704057e-03 9.940357852882704057e-03 9.940357852882704057e-03 9.940357852882704057e-03 9.940357852882704057e-03 9.940357852882704057e-03 9.940357852882704057e-03 9.940357852882704057e-03 9.940357852882704057e-03 9.940357852882704057e-03 9.940357852882704057e-03 9.940357852882704057e-03 9.940357852882704057e-03 9.940357852882704057e-03 9.940357852882704057e-03 9.940357852882704057e-03 9.940357852882704057e-03 9.940357852882704057e-03 9.940357852882704057e-03 9.940357852882704057e-03 9.940357852882704057e-03 9.940357852882704057e-03 9.940357852882704057e-03 9.940357852882704057e-03 9.940357852882704057e-03 9.940357852882704057e-03 9.940357852882704057e-03 9.940357852882704057e-03 9.940357852882704057e-03 9.940357852882704057e-03 9.940357852882704057e-03 9.940357852882704057e-03 9.940357852882704057e-03 9.940357852882704057e-03 9.940357852882704057e-03 9.940357852882704057e-03 9.940357852882704057e-03 9.940357852882704057e-03 9.940357852882704057e-03 9.940357852882704057e-03 9.940357852882704057e-03 9.940357852882704057e-03 9.940357852882704057e-03 9.940357852882704057e-03 9.940357852882704057e-03 9.940357852882704057e-03 9.940357852882704057e-03 9.940357852882704057e-03 9.940357852882704057e-03 9.940357852882704057e-03 9.940357852882704057e-03 9.940357852882704057e-03 9.940357852882704057e-03 9.940357852882704057e-03 9.940357852882704057e-03 9.940357852882704057e-03 9.940357852882704057e-03 9.940357852882704057e-03 9.940357852882704057e-03 9.940357852882704057e-03 9.940357852882704057e-03 9.940357852882704057e-03 9.940357852882704057e-03 9.940357852882704057e-03 9.940357852882704057e-03 9.940357852882704057e-03 9.940357852882704057e-03 9.940357852882704057e-03 9.940357852882704057e-03 9.940357852882704057e-03 9.940357852882704057e-03 9.940357852882704057e-03 9.940357852882704057e-03 9.940357852882704057e-03 9.940357852882704057e-03 9.940357852882704057e-03 9.940357852882704057e-03 9.940357852882704057e-03 9.940357852882704057e-03 9.940357852882704057e-03 9.940357852882704057e-03 9.940357852882704057e-03 9.940357852882704057e-03 9.940357852882704057e-03 9.940357852882704057e-03 9.940357852882704057e-03 9.940357852882704057e-03 9.940357852882704057e-03 9.940357852882704057e-03 9.940357852882704057e-03 9.940357852882704057e-03 9.940357852882704057e-03 9.940357852882704057e-03 9.940357852882704057e-03 9.940357852882704057e-03 9.940357852882704057e-03 9.940357852882704057e-03 9.940357852882704057e-03 9.940357852882704057e-03 9.940357852882704057e-03 9.940357852882704057e-03 9.940357852882704057e-03 9.940357852882704057e-03 9.940357852882704057e-03 9.940357852882704057e-03 9.940357852882704057e-03 9.940357852882704057e-03 9.940357852882704057e-03 9.940357852882704057e-03 9.940357852882704057e-03 9.940357852882704057e-03 9.940357852882704057e-03 9.940357852882704057e-03 9.940357852882704057e-03 9.940357852882704057e-03 9.940357852882704057e-03 9.940357852882704057e-03 9.940357852882704057e-03 9.940357852882704057e-03 9.940357852882704057e-03 9.940357852882704057e-03 9.940357852882704057e-03 9.940357852882704057e-03 9.940357852882704057e-03 9.940357852882704057e-03 9.940357852882704057e-03 9.940357852882704057e-03 9.940357852882704057e-03 9.940357852882704057e-03 9.940357852882704057e-03 9.940357852882704057e-03 9.940357852882704057e-03 9.940357852882704057e-03 9.940357852882704057e-03 9.940357852882704057e-03 9.940357852882704057e-03 9.940357852882704057e-03 9.940357852882704057e-03 9.940357852882704057e-03 9.940357852882704057e-03 9.940357852882704057e-03 9.940357852882704057e-03 9.940357852882704057e-03 9.940357852882704057e-03 9.940357852882704057e-03 9.940357852882704057e-03 9.940357852882704057e-03 9.940357852882704057e-03 9.940357852882704057e-03 9.940357852882704057e-03 9.940357852882704057e-03 9.940357852882704057e-03 9.940357852882704057e-03 9.940357852882704057e-03 9.940357852882704057e-03 9.940357852882704057e-03 9.940357852882704057e-03 9.940357852882704057e-03 9.940357852882704057e-03 9.940357852882704057e-03 9.940357852882704057e-03 9.940357852882704057e-03 9.940357852882704057e-03 9.940357852882704057e-03 9.940357852882704057e-03 9.940357852882704057e-03 9.940357852882704057e-03 9.940357852882704057e-03 9.940357852882704057e-03 9.940357852882704057e-03 9.940357852882704057e-03 9.940357852882704057e-03 9.940357852882704057e-03 9.940357852882704057e-03 9.940357852882704057e-03 9.940357852882704057e-03 9.940357852882704057e-03 9.940357852882704057e-03 9.940357852882704057e-03 9.940357852882704057e-03 9.940357852882704057e-03 9.940357852882704057e-03 9.940357852882704057e-03 9.940357852882704057e-03 9.940357852882704057e-03 9.940357852882704057e-03 9.940357852882704057e-03 9.940357852882704057e-03 9.940357852882704057e-03 9.940357852882704057e-03 9.940357852882704057e-03 9.940357852882704057e-03 9.940357852882704057e-03 9.940357852882704057e-03 9.940357852882704057e-03 9.940357852882704057e-03 9.940357852882704057e-03 9.940357852882704057e-03 9.940357852882704057e-03 9.940357852882704057e-03 9.940357852882704057e-03 9.940357852882704057e-03 9.940357852882704057e-03 9.940357852882704057e-03 9.940357852882704057e-03 9.940357852882704057e-03 9.940357852882704057e-03 9.940357852882704057e-03 9.940357852882704057e-03 9.940357852882704057e-03 9.940357852882704057e-03 9.940357852882704057e-03 9.940357852882704057e-03 9.940357852882704057e-03 9.940357852882704057e-03 9.940357852882704057e-03 9.940357852882704057e-03 9.940357852882704057e-03 9.940357852882704057e-03 9.940357852882704057e-03 9.940357852882704057e-03 9.940357852882704057e-03 9.940357852882704057e-03 9.940357852882704057e-03 9.940357852882704057e-03 9.940357852882704057e-03 9.940357852882704057e-03 9.940357852882704057e-03 9.940357852882704057e-03 9.940357852882704057e-03 9.940357852882704057e-03 9.940357852882704057e-03 9.940357852882704057e-03 9.940357852882704057e-03 9.940357852882704057e-03 9.940357852882704057e-03 9.940357852882704057e-03 9.940357852882704057e-03 9.940357852882704057e-03 9.940357852882704057e-03 9.940357852882704057e-03 9.940357852882704057e-03 9.940357852882704057e-03 9.940357852882704057e-03 9.940357852882704057e-03 9.940357852882704057e-03 9.940357852882704057e-03 9.940357852882704057e-03 9.940357852882704057e-03 9.940357852882704057e-03 9.940357852882704057e-03 9.940357852882704057e-03 9.940357852882704057e-03 9.940357852882704057e-03 9.940357852882704057e-03 9.940357852882704057e-03 9.940357852882704057e-03 9.940357852882704057e-03 9.940357852882704057e-03 9.940357852882704057e-03 9.940357852882704057e-03 9.940357852882704057e-03 9.940357852882704057e-03 9.940357852882704057e-03 9.940357852882704057e-03 9.940357852882704057e-03 9.940357852882704057e-03 9.940357852882704057e-03 9.940357852882704057e-03 9.940357852882704057e-03 9.940357852882704057e-03 9.940357852882704057e-03 9.940357852882704057e-03 9.940357852882704057e-03 9.940357852882704057e-03 9.940357852882704057e-03 9.940357852882704057e-03 9.940357852882704057e-03 9.940357852882704057e-03 9.940357852882704057e-03 9.940357852882704057e-03 9.940357852882704057e-03 9.940357852882704057e-03 9.940357852882704057e-03 9.940357852882704057e-03 9.940357852882704057e-03 9.940357852882704057e-03 9.940357852882704057e-03 9.940357852882704057e-03 9.940357852882704057e-03 9.940357852882704057e-03 9.940357852882704057e-03 9.940357852882704057e-03 9.940357852882704057e-03 9.940357852882704057e-03 9.940357852882704057e-03 9.940357852882704057e-03 9.940357852882704057e-03 9.940357852882704057e-03 9.940357852882704057e-03 9.940357852882704057e-03 9.940357852882704057e-03 9.940357852882704057e-03 9.940357852882704057e-03 9.940357852882704057e-03 9.940357852882704057e-03 9.940357852882704057e-03 9.940357852882704057e-03 9.940357852882704057e-03 9.940357852882704057e-03 9.940357852882704057e-03 9.940357852882704057e-03 9.940357852882704057e-03 9.940357852882704057e-03 9.940357852882704057e-03 9.940357852882704057e-03 9.940357852882704057e-03 9.940357852882704057e-03 9.940357852882704057e-03 9.940357852882704057e-03 9.940357852882704057e-03 9.940357852882704057e-03 9.940357852882704057e-03 9.940357852882704057e-03 9.940357852882704057e-03 9.940357852882704057e-03 9.940357852882704057e-03 9.940357852882704057e-03 9.940357852882704057e-03 9.940357852882704057e-03 9.940357852882704057e-03 9.940357852882704057e-03 9.940357852882704057e-03 9.940357852882704057e-03 9.940357852882704057e-03 9.940357852882704057e-03 9.940357852882704057e-03 9.940357852882704057e-03 9.940357852882704057e-03 9.940357852882704057e-03 9.940357852882704057e-03 9.940357852882704057e-03 9.940357852882704057e-03 9.940357852882704057e-03 9.940357852882704057e-03 9.940357852882704057e-03 9.940357852882704057e-03 9.940357852882704057e-03 9.940357852882704057e-03 9.940357852882704057e-03 9.940357852882704057e-03 9.940357852882704057e-03 9.940357852882704057e-03 9.940357852882704057e-03 9.940357852882704057e-03 9.940357852882704057e-03 9.940357852882704057e-03 9.940357852882704057e-03 9.940357852882704057e-03 9.940357852882704057e-03 9.940357852882704057e-03 9.940357852882704057e-03 9.940357852882704057e-03 9.940357852882704057e-03 9.940357852882704057e-03 9.940357852882704057e-03 9.940357852882704057e-03 9.940357852882704057e-03 9.940357852882704057e-03 9.940357852882704057e-03 9.940357852882704057e-03 9.940357852882704057e-03 9.940357852882704057e-03 9.940357852882704057e-03 9.940357852882704057e-03 9.940357852882704057e-03 9.940357852882704057e-03 9.940357852882704057e-03 9.940357852882704057e-03 9.940357852882704057e-03 9.940357852882704057e-03 9.940357852882704057e-03 9.940357852882704057e-03 9.940357852882704057e-03 9.940357852882704057e-03 9.940357852882704057e-03 9.940357852882704057e-03 9.940357852882704057e-03 9.940357852882704057e-03 9.940357852882704057e-03 9.940357852882704057e-03 9.940357852882704057e-03 9.940357852882704057e-03 9.940357852882704057e-03 9.940357852882704057e-03 9.940357852882704057e-03 9.940357852882704057e-03 9.940357852882704057e-03 9.940357852882704057e-03 9.940357852882704057e-03 9.940357852882704057e-03 9.940357852882704057e-03 9.940357852882704057e-03 9.940357852882704057e-03 9.940357852882704057e-03 9.940357852882704057e-03 9.940357852882704057e-03 9.940357852882704057e-03 9.940357852882704057e-03 9.940357852882704057e-03 9.940357852882704057e-03 9.940357852882704057e-03 9.940357852882704057e-03 9.940357852882704057e-03 9.940357852882704057e-03 9.940357852882704057e-03 9.940357852882704057e-03 9.940357852882704057e-03 9.940357852882704057e-03 9.940357852882704057e-03 9.940357852882704057e-03 9.940357852882704057e-03 9.940357852882704057e-03 9.940357852882704057e-03 9.940357852882704057e-03 9.940357852882704057e-03 9.940357852882704057e-03 9.940357852882704057e-03 9.940357852882704057e-03 9.940357852882704057e-03 9.940357852882704057e-03 9.940357852882704057e-03 9.940357852882704057e-03 9.940357852882704057e-03 9.940357852882704057e-03 9.940357852882704057e-03 9.940357852882704057e-03 9.940357852882704057e-03 9.940357852882704057e-03 9.940357852882704057e-03 9.940357852882704057e-03 9.940357852882704057e-03 9.940357852882704057e-03 9.940357852882704057e-03 9.940357852882704057e-03 9.940357852882704057e-03 9.940357852882704057e-03 9.940357852882704057e-03 9.940357852882704057e-03 9.940357852882704057e-03 9.940357852882704057e-03 9.940357852882704057e-03 9.940357852882704057e-03 9.940357852882704057e-03 9.940357852882704057e-03 9.940357852882704057e-03 9.940357852882704057e-03 9.940357852882704057e-03 9.940357852882704057e-03 9.940357852882704057e-03 9.940357852882704057e-03 9.940357852882704057e-03 9.940357852882704057e-03 9.940357852882704057e-03 9.940357852882704057e-03 9.940357852882704057e-03 9.940357852882704057e-03 9.940357852882704057e-03 9.940357852882704057e-03 9.940357852882704057e-03 9.940357852882704057e-03 9.940357852882704057e-03 9.940357852882704057e-03 9.940357852882704057e-03 9.940357852882704057e-03 9.940357852882704057e-03 9.940357852882704057e-03 9.940357852882704057e-03 9.940357852882704057e-03 9.940357852882704057e-03 9.940357852882704057e-03 9.940357852882704057e-03 9.940357852882704057e-03 9.940357852882704057e-03 9.940357852882704057e-03 9.940357852882704057e-03 9.940357852882704057e-03 9.940357852882704057e-03 9.940357852882704057e-03 9.940357852882704057e-03 9.940357852882704057e-03 9.940357852882704057e-03 9.940357852882704057e-03 9.940357852882704057e-03 9.940357852882704057e-03 9.940357852882704057e-03 9.940357852882704057e-03 9.940357852882704057e-03 9.940357852882704057e-03 9.940357852882704057e-03 9.940357852882704057e-03 9.940357852882704057e-03 9.940357852882704057e-03 9.940357852882704057e-03 9.940357852882704057e-03 9.940357852882704057e-03 9.940357852882704057e-03 9.940357852882704057e-03 9.940357852882704057e-03 9.940357852882704057e-03 9.940357852882704057e-03 9.940357852882704057e-03 9.940357852882704057e-03 9.940357852882704057e-03 9.940357852882704057e-03 9.940357852882704057e-03 9.940357852882704057e-03 9.940357852882704057e-03 9.940357852882704057e-03 9.940357852882704057e-03 9.940357852882704057e-03 9.940357852882704057e-03 9.940357852882704057e-03 9.940357852882704057e-03 9.940357852882704057e-03 9.940357852882704057e-03 9.940357852882704057e-03 9.940357852882704057e-03 9.940357852882704057e-03 9.940357852882704057e-03 9.940357852882704057e-03 9.940357852882704057e-03 9.940357852882704057e-03 9.940357852882704057e-03 9.940357852882704057e-03 9.940357852882704057e-03 9.940357852882704057e-03 9.940357852882704057e-03 9.940357852882704057e-03 9.940357852882704057e-03 9.940357852882704057e-03 9.940357852882704057e-03 9.940357852882704057e-03 9.940357852882704057e-03 9.940357852882704057e-03 9.940357852882704057e-03 9.940357852882704057e-03 9.940357852882704057e-03 9.940357852882704057e-03 9.940357852882704057e-03 9.940357852882704057e-03 9.940357852882704057e-03 9.940357852882704057e-03 9.940357852882704057e-03 9.940357852882704057e-03 9.940357852882704057e-03 9.940357852882704057e-03 9.940357852882704057e-03 9.940357852882704057e-03 9.940357852882704057e-03 9.940357852882704057e-03 9.940357852882704057e-03 9.940357852882704057e-03 9.940357852882704057e-03 9.940357852882704057e-03 9.940357852882704057e-03 9.940357852882704057e-03 9.940357852882704057e-03 9.940357852882704057e-03 9.940357852882704057e-03 9.940357852882704057e-03 9.940357852882704057e-03 9.940357852882704057e-03 9.940357852882704057e-03 9.940357852882704057e-03
2.010866633165785178e+00 -1.321425080060735668e+00 -1.140501539396598096e-01 2.155303699619869340e-01 3.992744514620578111e-01 -5.507305763184450198e-03 -1.121002446626157889e+00 -1.060876598933906817e-02 3.636027753022713638e-04 1.475660244331664206e+00 -1.002247321563372040e+00 -6.189903820854920635e-01 -4.350061356668705748e-01 2.651134763441090891e-01 1.773491046713615849e-01 -4.416694763877671015e-01 2.467408580746245139e+00 1.521528017048989545e+00 2.557335944683751361e+00 5.069537273451147907e-01 2.125381478305121252e+00 8.731144630282514640e-01 2.970185580932100944e+00 1.207424102572201945e-04 -5.646481476060540849e-01 -1.710020441343447439e+00 1.912651471474251796e-01 -7.689669240991980903e-01 -1.255400407799851237e-01 -3.282164719587760127e-01 4.704525609289857413e-01 -2.231356696252474681e+00 -7.042579907672782413e-01 7.598801040552789487e-01 4.844083130285539718e-02 2.257082403447736585e-01 -1.156950782552400137e+00 1.205821757612374867e+00 -1.593929498097836628e-01 1.859694535534924809e+00 2.213808422140955301e+00 8.739789365836360124e-01 -1.160853160640786585e+00 2.834871325977132428e-01 5.732068693716180219e-01 3.479605592023404803e-01 -3.117363577917184325e-01 -1.696247268720259549e-01 1.600508120594305694e+00 5.716962206492127718e-01 1.120236875575381791e-02 2.638458765026401309e-01 1.079998143202012928e+00 3.497514774448985952e-01 2.410907462044704352e-01 -2.533034741443059290e-01 1.577104697569327307e-01 2.129895185109353661e-01 9.868810889950184462e-02 -1.783334307856312140e-01 1.634677698213458652e-01 5.437885467400449535e-01 2.683462975819156382e-01 -7.264612081237833419e-01 1.003834562951485765e+00 9.954381150260467603e-02 5.128926360966460374e-01 1.873296018405179897e+00 1.537982779568970892e+00 -1.343871138858684144e+00 2.460412781411094874e-01 -3.816176370367368453e-01 1.504592038315027525e+00 7.096397573892023747e-01 6.997036307810753364e-01 7.789999901234412327e-02 3.168175600563557515e-01 1.724786397887607958e-01 5.032060561525821818e-01 -3.008527325622363247e-01 9.591864667789542498e-01 -1.250715791506304964e+00 -7.073449217284516477e-01 -2.323889013816612947e-01 5.869041569786392909e-01 -1.630100100889580739e-01 -1.646428921778515075e+00 -2.740234070646163089e-01 1.291477044002893593e-01 -8.068527039629361797e-01 -1.123037344391029313e+00 6.325300525421191367e-01 -1.178003884228830289e+00 -6.911417682374574323e-01 -8.153175094805603651e-01 5.360983149165018391e-01 -2.763194991553467705e+00 5.038071170853416492e-01 -3.236018065402435084e+00 -1.977926700943431482e-01 -3.900787501685399228e+00 -7.582926750817564621e-01 1.068542551577910393e-01 3.771748306491682912e-01 -7.759416663883708098e-01 -4.458592662867731371e-01 -1.262678180269473760e+00 -8.847011743533035322e-01 -1.822845190607902843e+00 1.878064961036178537e-02 3.101060498450894931e-01 8.680010972934167901e-01 -7.888417237500513490e-01 2.463007954212098838e+00 8.550582176420847835e-01 -1.792927722254549633e-02 -2.223508423307325454e+00 -5.780599390252175868e-02 1.992118261748220043e+00 -2.878778882851671383e-01 7.034892679766698853e-01 -1.120638219649128908e+00 -3.807142571985582258e-01 2.189994832136520575e+00 -1.276331087091511662e+00 -9.426292159217286581e-01 7.587005043107492019e-01 -1.229090577060955036e+00 -2.608094356092728550e+00 1.326483911979399855e+00 2.353057409956932355e-01 2.576334200680452380e-01 -1.349005412095465983e+00 -8.752831163059334729e-01 7.990268015645410893e-01 1.338874246058003870e+00 -1.077133970170230104e-01 -2.789081288381995538e+00 -1.659560228382715996e+00 -5.791591485621543356e-01 -8.843939461604189978e-01 -9.365860312590519321e-01 -1.731633148208903350e+00 3.092799644828396199e-01 -3.573923063287194779e+00 4.599899204426043386e-01 -1.340098465165364683e+00 -1.922541937392911127e+00 3.024338649725353267e+00 -6.876621349089379054e-01 -7.423955490853852979e-01 -2.404109017264188797e-01 -4.853529650592221523e-01 -3.643008480308939090e-01 6.970532684282495506e-01 2.091695150353308552e+00 5.146913663068604095e-01 -6.773984867279816413e-01 1.319675545751404444e+00 -9.633469530844859796e-02 2.057850371108791876e+00 -3.431536908454438373e-01 4.374248389441600660e-01 8.273108892491387589e-02 5.635523813904281809e-01 1.347943399536997711e-01 2.474421116239170770e-01 -1.295384611008498332e+00 -4.781813919541424290e-02 1.068237401288077981e+00 1.412507772478775347e+00 -1.467408554891199923e+00 2.238340865904221710e-02 9.289428346702693906e-02 -1.485956980973292429e+00 2.357634068856953591e-01 -8.052579502995512728e-01 7.545310654466140521e-02 -5.202308034875123832e-01 -2.154652002212611717e-01 -3.200518892012313543e+00 -1.587096348507285315e-01 6.527940599296733204e-02 1.773346418170309136e+00 7.975131131858718136e-01 4.692632055208956765e-01 -6.974781523408971617e-01 -6.847408107228214469e-02 6.977627514555811983e-01 5.131550469209026355e-01 -1.857605905647884692e-01 -8.158644833448420730e-01 1.872315288980815617e-01 3.209763181215053440e-01 1.673655900258264051e-01 1.129246248177049550e+00 -5.271467309189882267e-01 2.236745542900450356e+00 -3.176596271163051322e-01 1.599827424229909978e+00 -5.328969928887133944e-01 -4.289209429332196954e-01 1.705372045194542219e+00 -5.131749247060364283e-01 2.670702382490647842e-01 -9.487582668510372574e-01 1.218763652559774924e+00 -3.122242717084028341e-01 6.020315263545045203e-01 -4.056646937846146161e-01 9.086883587275125240e-01 6.199855751091543771e-02 -4.290947508179757813e-02 -5.471520618867907748e-01 1.008372735140836030e+00 1.284671851306240953e+00 -1.660180467149175110e+00 1.626743803327687310e+00 1.732778206025614498e+00 3.388333255186552068e-02 7.172010566413535015e-02 -1.700238686791385456e-01 -1.889565493130608065e+00 1.258030268814757102e-01 -5.656897909178919270e-02 8.104017000111616298e-01 4.319972611664026907e-01 9.776098910847539347e-01 7.269936929203141274e-01 9.892100926886400192e-01 1.509295792290219707e+00 -2.471448457632401952e-01 -1.395445318257750866e+00 4.815210669053210935e-01 3.019569377554404133e-01 2.380332633325776825e+00 -1.473601175983300315e+00 -1.411755966157301145e+00 -1.662374046979767206e+00 2.507013412036338540e-01 -1.938585183265937983e+00 1.221451732800338030e+00 -6.360639217051637928e-01 -2.847197545715618006e+00 -4.987668551308094278e-01 -2.647580142880372467e-01 -9.865968440923710003e-02 1.511388424725759405e+00 2.654921808830874030e-01 4.477935381609855270e+00 3.195125280993256489e-04 -1.714332901855019298e+00 -7.095785406168399201e-02 -6.231023874320618106e-01 2.420361366581011975e-01 -2.949462218756268017e-01 9.801670354328427814e-01 -1.928728968436934921e-01 -2.184171757761395882e-01 -5.987787481693831459e-01 2.309300376803518351e-01 5.134982140936458217e-01 4.969118910884224305e-01 -7.315228237990328841e-02 4.662007478197974231e-01 3.256874463396230435e-01 -1.439827907933298290e+00 -1.558629908151741295e-01 -1.960364486274933093e-01 5.332818475154648130e-01 1.800049158602589072e-01 -7.946236146976815018e-01 1.829396176545342589e-01 1.628648676237849924e-01 1.121356154974796127e+00 1.768840024370604835e-01 -1.175934710829381058e-01 -1.933297174987895217e-01 1.210215066067727552e+00 -7.726795229643002028e-01 -1.303215955360580436e+00 -1.523177320500958665e+00 3.210651300829257537e-01 2.273446285228292729e-01 -6.390138848428224272e-02 1.845268638832414376e-01 -1.339356197472791610e-01 -2.023288510499455572e+00 -4.582956668483594703e-02 -1.348672993295025879e+00 -2.346733740496545137e-02 8.879729500714901302e-01 2.499814620935137677e-01 -1.376453374385344208e+00 1.281233582565292350e-01 9.004900774318138623e-01 8.043199950335701010e-01 5.708792915823300840e-01 4.114979843320572539e-01 5.327363652656811333e-01 -2.334899120706708520e-01 -4.973642667641549608e-01 -1.327064187609516832e-01 -6.904822208937060335e-01 1.836684573718612379e+00 -5.983927078923427789e-01 3.135603013786378290e-01 2.525330971929334312e-01 4.504727424527633639e-01 -6.831575234436831900e-02 1.894122389820421581e+00 8.559195614062585500e-02 3.768536188555794975e-01 1.100156602393764782e+00 -3.561151764738541003e-01 -3.786452774028490897e-01 3.839653856280481614e-01 5.878712159630513634e-01 7.309491917203490008e-01 7.583134806033670072e-01 6.753445422628385764e-01 1.828014402465897970e+00 1.870318243254362134e+00 -5.674859233079535548e-01 -7.400577928997931210e-01 2.809620240937352742e-01 -3.782896519231077281e+00 -3.272186486115185033e-01 -1.085492180516571370e+00 3.454070118693910452e-01 1.369110754465310498e+00 4.944025226823264285e-01 -5.634475510696828060e-01 -4.305111693776929593e-01 4.965617893010918493e-01 -2.058696466520053558e-01 1.389249268077626942e-01 -8.151316144628275584e-01 -4.372804283914018542e-01 -2.850361748434119935e+00 -6.916519214589683662e-01 4.678056150878953656e-02 5.364011831457121682e-01 2.899782103503301678e-01 -9.096978385807558132e-01 9.537197495813125592e-01 -1.521455302347437089e+00 -3.266123572868263047e-01 -2.188746625673018420e-01 3.636804492938320532e+00 2.373549798343496775e+00 -1.395672872360643191e-01 5.200276697557495442e-01 1.963002800222186928e-01 2.274925140820432956e-02 2.684561728044855544e-02 -3.867427773804803515e-01 1.384280574199863167e+00 3.243486709658460754e+00 -3.465442146103707710e-01 2.595643393513157982e+00 -2.798851741857342756e-01 2.914894524861220138e-01 -1.510168436004346304e-01 4.224578459680828346e-01 -1.492418287051296977e+00 -3.150601489225286489e-01 -2.782149583913176905e+00 -8.630452842098387256e-01 -2.668146412865578521e-01 -7.482009321779626854e-01 1.157343515022730696e+00 -3.926061850022778188e+00 9.786312297080088096e-03 1.022179736630247637e+00 8.215176845854009757e-01 -8.391217030295305968e-01 -3.164448756738837076e+00 2.508683802055128864e-01 5.786831422797422686e-01 -1.933764791321783694e-01 3.389680876265848547e-02 -9.509787382067140526e-03 6.009105664221443543e-01 7.086355962306033485e-01 2.338939873630922595e+00 -1.327986732655259683e+00 1.769467484123513179e+00 4.373814021518878103e-01 -1.176949220382762368e-01 -1.531790043999928574e+00 -3.092969217392035897e-02 -4.247184870836036019e-01 -3.620671569147489999e-01 1.095851516235226253e+00 -5.793306077350720562e-01 1.061802875091632237e-01 -4.421769265680445260e-01 -2.830895997280974408e-01 1.731438247106883876e+00 5.177709534646742773e-01 -1.316299141390943728e+00 -2.543074227729855696e-01 3.202866878306329101e-01 -1.342251772054563919e+00 1.092170634878230739e+00 -4.469847168093932233e-01 7.784704584309831699e-02 1.214409084352744417e+00 1.961527149024471228e-01 3.026343537239854498e-01 -7.159001170736164488e-01 -6.130275379351898257e-01 -7.078464790431802101e-01 -1.737757312492329342e+00 9.557522574209019461e-02 5.398085799948622032e-01 1.923389387272395334e-01 -9.118946080639200868e-01 3.278797825720753956e-01 7.361876398820126344e-01 6.646041286673645687e-02 -1.527561430179195767e+00 5.964888089645652147e-02 2.894330442106383683e-01 -2.768389441559533370e+00 -9.973487834212284575e-01 -1.669949077018064582e-02 -4.099787799032610369e-01 -1.460189768233851326e-01 -4.772616496394185837e-01 -8.037501182161210789e-01 2.212670852399548860e+00 -6.838957450415830142e-01 1.830748653977113394e+00 -9.824612440711345540e-01 9.535452712046015022e-02 -8.481983717846841575e-01 2.254290234072477528e+00 -1.004517688079034299e+00 -1.228173485006086807e+00 -7.224830468342008372e-02 -3.391709436181468140e-01 -5.946693640835548633e-01 -3.771274778927845017e-01 2.696241554474225754e+00 -2.234229956011747620e-01 -8.402438926339731440e-01 -3.829012130437379757e-01 5.808076264884638462e-01 -1.005849318817763072e+00 -1.889779342377701510e-01 -1.218725025620713165e+00 3.486596502153464505e-01 -4.582262316128621338e-01 5.688310040494175546e-01 -6.554403408825507649e-01 -1.454041845580395842e+00 -8.301559807456212470e-01 1.102627609337401671e+00 3.387761270309187500e-01 -1.489802274974054042e+00 -7.122422565404161743e-01 -2.404526532936108740e+00 3.297734941914096662e-01 6.250781780210919181e-02 -9.508493867329663451e-02 3.284934787245306076e-01 -2.061133040806704120e+00 -2.963130165993707044e-01 -1.626135596273729611e+00 8.251233147585042282e-02 2.698393199542178933e-02 -1.179716243320799718e+00 -2.252562693599796662e-01 8.339508933947619163e-01 -3.586565976568855119e-01 5.035862744327976870e-01 -4.278163610064191630e-02 2.814655862381842399e-01 -1.615651897034610984e+00 4.761103136353138088e-01 5.127441812896248452e-01 2.345179559879824460e-01 -8.195947788237201159e-01 -9.992560372049444362e-02 -5.980698492612368522e-01 -3.815772293045878172e-01 -1.240456204626191883e-01 -5.381392313775970604e-02 1.235336613018332530e+00 1.856351738161064191e-01 4.942488911130229479e-01 2.215384365172480552e-02 -1.392374468754855821e+00 4.460246964983609619e-01 -1.291259524636662603e-01 -6.659788536354664668e-02 2.366803251037588943e-02 -7.638602789788943026e-01 2.794775159734126935e-01 -8.152278744965719692e-01 1.147474646923488939e-01 2.282292727003667920e+00 7.536671422493607109e-02 -9.041904842931133279e-01 6.352779241896334972e-02 -7.466848460450109526e-02 2.041233522910658404e+00 -5.385109605712521536e-02 -9.080622436781465162e-03 -9.978392279600271086e-01 4.139356656921278632e-01 -1.824561196866539628e-02 3.208919817646118666e-01 1.274936831426980166e-01 -2.675377443684793466e+00 1.556359046235574306e+00 7.777009958761452735e-01 6.008463314477354711e-01 -7.753687273101622646e-01 -8.440396657792467172e-01 6.335444062837429779e-01 -2.356109809948778722e+00 -4.825965988127994266e-01 4.960326760254574752e-01 9.004268986935740071e-02 1.678782300641949998e-01 1.785130529925009535e+00 1.519175253796445912e-01 7.841674857172117319e-01 -3.981216058259847146e-01 5.167762215496158884e-01 7.567395055137288162e-01 -2.744612068204529964e-01 1.628779071490465968e+00 3.671222715183209973e-01 -8.759356228909556119e-01 -1.727264177627945374e+00 2.785335502042637579e+00 3.754192110634021473e-01 -2.755009875051090962e-01 -7.472670230353328780e-02 -2.987481658090074266e-01 1.704974037196718806e+00 1.920458740299890721e+00 -1.005194527971783602e-01 2.278523624592336261e-01 -1.779967221177484460e-01 -1.370663131299945658e-01 6.265967193395861889e-02 1.355089556849274679e+00 1.167550540925880620e+00 -1.560480235581081843e+00 -4.320920605539875781e-01 -2.965473125505123653e-01 -1.528730720418377542e-01 -1.076012261716468091e-02 -1.843586708442530364e+00 3.317635377377672889e-01 -1.859645250120645910e-01 2.635697410231477855e-01 1.117548911605481976e+00 4.850877605128715575e-01 -3.645210529784588260e-01 1.970113389250991165e-01 -7.573953689718807558e-01 6.014614735082712826e-01 -1.830408073483617282e-01 6.456198817638866272e-01 -3.367928752046054353e-01 -6.603704722447815145e-01 1.035313401585099990e+00 3.933378153052558002e-01 -3.759310853040050970e-01 2.809562250827669083e-01 -3.109965804678360701e-01 -8.722152073604153566e-01 -8.172088463081514931e-01 -2.414695805855056332e-02 -4.243398451361780066e-01 2.026542449278162517e-01 5.522684224877847381e-01 1.910134882956323332e-01 -1.606856529914741483e+00 -1.377318100827056857e-01 2.755234237090759208e+00 -7.727363391214459032e-01 -4.794891699827456555e-01 3.439736595181105416e-01 7.702309941028524509e-01 7.834418624030617950e-01 -1.108144645417836610e-01 1.446989846121980783e+00 3.330046836185606707e-01 -1.462417460275596548e-01 1.257179291404399990e-01 3.334975780319084371e-01 1.260135903780311428e-01 -2.077358024926392599e-01 -4.787525124047957159e-01 -3.249327509471074404e-01 3.480552060490234023e-01 -1.153158600757263397e+00 -6.086085778278788744e-02 -7.495753713727789647e-01 1.038030807976506154e+00 -4.939294200672124657e-01 2.567452569470816126e-01 -2.220598407342786462e+00 -3.216232455657985767e-01 1.837653371847245420e+00 -1.933614990433687897e+00 -1.229540835626909551e-01 5.300228957819809461e-02 -1.053999713521782400e-01 -6.753989434964798866e-01 4.314891601981855063e-01 -1.191029931538339248e+00 -2.338423835956042307e+00 -7.621329666509154555e-01 6.494589225237573649e-01 1.509302881132016605e+00 2.993420688653842254e-01 -5.749893775368127846e-01 2.724917266682937433e-01 7.346227266527750599e-01 -5.986668364861291725e-01 5.971911549352831861e-01 1.244223145389328211e+00 8.012025442458424740e-01 1.866618915207560736e+00 5.433822913367792884e-01 2.458250785377972925e+00 -2.680766478007627018e+00 7.715749268319926912e-01 -7.994679177136081449e-01 -1.470162959690441695e-01 -3.248854425164232618e-01 5.295882758111775113e-01 1.223931736481554677e-01 -3.980053019667744718e-01 1.102547416226009602e+00 3.905887014804970137e-01 -1.040176989721238732e+00 3.484736536156436415e-01 -5.129306844979735214e-01 2.658158466193726310e-01 8.328238898602371432e-01 -3.275514161941510682e-01 -2.629260959228985617e-01 3.230403866638529298e-01 -1.598126401524593954e+00 -1.271919976380265993e+00 1.198690088863618719e+00 -9.522134079792634598e-01 9.996696635986024315e-02 6.764419006079018803e-01 -1.735896194328881759e+00 1.683408007172762400e+00 7.522347367032597987e-01 6.945648355882843017e-01 6.747906080975752952e-01 -8.454067392246344959e-01 -4.301937493655271894e+00 -1.338992056528744090e+00 1.974421784280971259e+00 5.899017357702556197e-01 2.275271796765573618e-01 1.019800393260203997e+00 -9.954999603032438360e-01 -4.112847903844405906e+00 5.706629056048629911e-01 9.646842075190672494e-01 -2.969851863054543628e+00 3.616999520394439394e-01 7.359869267220342515e-01 -5.191555922877467699e-01 -4.206322890460978958e-01 -1.949910669414724129e+00 -7.048316031657714253e-01 2.811633105278463218e-01 -2.005246652285945785e-01 -1.018814996814576768e+00 -1.610278968223063586e-02 5.295226482278667657e-01 -6.236201530866236631e-01 -5.868477074480831224e-01 3.836137677527445833e-01 -1.026014330961254883e-01 -3.343150831907953369e-01 5.996812135194735660e-01 5.929789614799161335e-01 -1.273127854388162561e+00 3.758996516320131098e-01 5.606791555568838570e-01 -3.209833574648015553e-01 -6.958171345853486622e-02 -1.435799317857822388e-01 -1.560110152343375356e+00 -2.713615331216879145e+00 1.154866277534643965e-01 2.001957302723332555e-01 -4.025799293412746782e-01 -7.836542910665932338e-01 -4.662243283999766286e-01 -3.884262391804376713e-01 1.972903208995762381e-01 -1.152323846506145832e+00 5.202853937631178871e-01 2.940777721186490501e-01 -5.509254216655826708e-01 -1.592666726503053909e-01 3.724694668862122415e-01 -1.336241916569151700e+00 -1.047726060026384909e+00 -3.822253663633857212e-01 -3.154112233760221429e+00 -4.472678118007309966e-01 3.246922882315540715e+00 -2.042909904356166595e-01 -1.532232439142464209e+00 -4.687959371876706527e-01 -8.666517229688894264e-02 -2.060243825053097666e+00 1.111743706973809198e+00 4.999745024853411435e-01 3.470955944185985520e-01 -4.602150678151328278e-01 -4.321392725781441624e-01 4.811323242907230568e-01 -1.166143858754096208e+00 -1.172814035332041760e+00 1.299058986158737383e+00 -1.460048048623854511e+00 -5.840285864528692583e-01 4.852829897751373411e-02 -5.461934370610654899e-01 -2.135282286781007427e-02 1.130632838145256391e+00 -1.455434344923045020e-01 7.310022371954315312e-02 1.306440341738714039e+00 4.095490905262959558e-01 8.498742466246553828e-01 -4.389934108862810769e-01 -1.085690750221554479e+00 1.333171956996643814e+00 3.920804128173511205e-01 -4.863035466328229361e-01 2.123380543094514739e+00 -7.036050256197414754e-01 -1.601254805031180783e+00 6.262673800079809894e-02 -2.133543832517154737e+00 5.188254737290890484e-01 2.455872255409605742e-01 1.259072637635383130e+00 8.719719113071831007e-01 1.331044428882658393e+00 1.403990072423894064e+00 -6.397858074237239290e-02 1.850031174262224340e-02 -2.411440809918971931e-02 1.543919390861955065e+00 -3.476112366406650667e-01 -9.495744419442710138e-02 -6.890999494159736338e-01 -1.722922110708204890e-01 -3.202249731501146113e-01 9.942446908660501625e-04 1.125026820418281726e-01 -1.143257145708952496e-02 5.915478441161523548e-01 4.759806377632352925e-01 -1.269859983332385367e-01 -3.580478349416655326e-01 -1.035217997877531659e-01 -1.985763650585056439e+00 1.111802380068727558e+00 2.721239447237925879e-01 2.951768330165921994e-01 2.424843111687146890e-01 -5.856758138118777213e-01 -1.253218847238585787e-01 1.766519442703189113e-01 -6.907708067916779049e-02 -2.520747213608430237e-01 -1.607470951956543603e-01 -6.834124298645030127e-01 1.221404829624970073e-01 1.436603057122215754e-01 -8.331977896539279893e-01 -1.194099626461019747e+00 -1.627298998961489218e+00 -8.640853219545769903e-01 2.331581170691252314e-01 -6.709280663676441270e-01 1.083777185360556006e+00 8.414739937395681046e-01 -4.838112900971013042e-02 1.116043134764959643e-01 -2.023668929181858811e+00 3.858102088287350684e-01 1.947364803503429664e-01 -5.488362409099771799e-01 -1.064655574799813653e+00 1.748008730412664802e+00 -4.831878151677244659e-01 1.710474247449516594e-01 -2.135744751691718957e+00 -1.245195871753725370e-01 -2.673803691235580260e+00 -1.492134166879222068e+00 -1.100714038190996114e+00 -1.131545546541038449e-01 -5.222867779102209340e-01 -1.680522921517686452e-01 3.210729968280484625e-01 7.147756243459507663e-01 -4.597351300960473286e-01 -4.869730859952769997e+00 4.314282972011276862e-01 -4.586295435207701221e-01 -7.317316289772652915e-01 -4.381423885188060613e-03 1.840635820936779507e-02 3.742338851809075551e-01 3.918654839184889660e-01 -3.519585174872712496e+00 -8.176476673162274000e-01 -2.537821924870005130e-01 -5.536824080486246746e-01 1.231941759179814577e-01 1.521122935467001946e+00 1.349647283475091664e+00 5.689172934765979184e-01 -2.188993244198005755e-03 -7.637805132910781003e-01 -2.170358840965234404e-01 4.580438966692422786e-01 6.997491461706338844e-01 3.601944193036041297e-02 2.298816237868788193e+00 8.985103787421635513e-01 -9.207991121382133604e-02 -1.427273326587122249e+00 -6.549621907473796023e-01 -2.211662967967679277e-02 2.399633659905238414e-01 9.281749432183498127e-01 9.429120960535338769e-01 1.138336643555313055e+00 -1.125481313981395060e+00 1.221880177159001546e-01 -1.682305824552816076e-01 -3.578997563798493320e-01 -5.473557190234771275e-01 1.465325574192786862e+00 -1.622340419179439663e-01 2.775135636021465180e-01 -3.576928565070082722e-01 -7.761587634168791716e-01 9.628424137557318740e-01 -3.263893140147769434e-01 1.481627193142384558e+00 -2.333870215835105733e-01 -4.434146789403114464e-01 8.688026533095692949e-01 -1.049865219704617880e+00 1.620056650843878066e+00 8.032605619898772753e-01 6.155457191411956019e-01 -2.649361685224785323e-01 1.624770023883871373e-01 2.424990362062168503e-01 1.364042015402050154e-02 2.208585497557168653e-01 3.562631969982706370e-01 -7.274647016230190166e-01 -4.006964776713810017e-01 -3.115994480740794437e+00 1.136714613838493287e-01 -7.727377045097049146e-01 -4.071562578721894532e-01 1.470183592707267062e+00 -4.078287023984655257e-01 6.531753871183371141e-01 -1.646067691790416454e+00 -2.557640450632287510e-01 1.502525403955634331e-01 2.250306319687508161e+00 7.116888267595569140e-01 1.633944601693446463e+00 4.281246595686357681e-01 1.827528948879653337e+00 1.850863919767115950e+00 -3.374951745397068437e-01 -1.818249123047220861e-01 -1.296252595509781669e+00 1.575590773236368758e+00 -2.608834387496651308e-01 2.128111153158211533e+00 5.305576522198451883e-01 4.594720556451552529e-01 3.233161879363592450e-01 5.881760080134661450e-01 -4.746341361708169559e-01 4.296280797330378487e-01 7.941186534948121989e-02 -3.879428038941822310e-01 -5.160162033782658697e-02 -1.097009408899039862e+00 1.100113040917235219e-01 -1.769415237942013608e+00 1.105919715098921952e+00 -5.276448935507326299e-01 3.255220721660554983e-01 -2.502293407042597839e-01 -3.179992641710513102e+00 2.631607018403346210e+00 -3.068766819444591620e-01 -4.819367012017747864e-01 -1.055396224738352817e+00 3.380154376832694152e-01 -9.992494527491484479e-01 4.446126223427330215e-01 -1.569694268792914960e+00 -7.675865383589456359e-01 -1.205309734416276868e+00 -7.409747463136451273e-01 8.669334802920945771e-02 -1.214280639105471904e+00 4.629013009072401985e+00 9.801787319880612692e-01 -7.882454899428462669e-01 3.914683718691101544e-01 -4.115189695719178253e+00 -4.910431223402469958e-01 -2.790203591498022551e+00 1.109673168421475786e+00 -5.063500615319522780e-01 2.654457227843295963e-02 1.272847864070152657e-01 6.702550109039594473e-01 2.436167578891107743e-01 1.985519118737062438e-01 -1.417753045558837410e+00 -1.628281814847218678e+00 1.775068024363583019e-01 2.736880829050972186e-01 -9.596131809748446040e-01 -2.437081349619397486e+00 -1.770832067115027941e-01 6.211523941526528869e-01 -5.122283764294374153e-01 6.418132490132958390e-01 2.691384540914756873e-01 -2.017426372434779402e+00 1.954931039431525783e-03 -1.116393259411662953e-01 4.521060850391971364e-01 1.185652835983557266e-02 9.480422861804512769e-01 -9.836966780521073650e-01 -7.537738969531943001e-03 1.541553259749863125e+00 -1.752937759417986241e-01 1.895027130428891926e+00 -6.170768526781759966e-02 9.898204390578022038e-02 2.730807255874335038e+00 -1.430546852781849898e-01 -7.596653674171444104e-01 2.076617129151400454e-01 6.881804311000230823e-02 -3.970016425615561784e-01 -6.378282623785237471e-01 2.767987662696211437e+00 1.722063540978024665e-01 -5.582204567587218946e-01 1.251751234758517350e+00 3.062722191987464759e-01 1.984735077987253571e-01 7.063106362969440166e-01 -7.803042411405102241e-01 1.707334197839885492e+00 -5.390134906547590088e-01 -2.505975041261733760e-01 4.420734639056597137e-01 8.782685876009989068e-01 1.674396753477139788e+00 3.936721552730517715e-01 -2.843033537355111884e-01 -8.630291431297738569e-01 1.721871268298716284e+00 -1.236678167441759707e-01 -9.262488063683989026e-01 1.838806680912066893e+00 3.403921563720682109e-01 -1.028724287154721528e+00 -5.827958481432630178e-01 -5.338486456294839338e-02 4.060500489797975315e-02 1.179180306128346095e-02 -1.947014851112366940e-01
-4.079646859766133948e-01 6.323257016040517708e-01 -1.357713230605792909e-01 6.047028329189534368e-01 4.511801463178677363e-02 1.491573888070146126e+00 6.672987235261672589e-01 3.721693753816206485e-01 -3.880971899263859215e-01 8.728105164526890614e-02 6.976807191876427394e-01 -1.708802562355763666e+00 4.470799549756320213e-01 5.331131759255348657e-01 1.104704121630994962e-01 5.048119107862704125e-01 -2.028402535620303093e-01 2.606038341708517558e-01 1.298225214767370961e+00 -1.500726829557954556e-01 -6.599039472142546048e-01 3.857004141494559946e-01 1.567783208147856655e+00 -2.855085237155222111e-01 2.746948562754475409e-01 -1.224039962828500361e+00 1.425665775651757672e+00 2.445867122761609114e+00 2.174927733444877553e+00 1.197779968534431194e-01 -2.506686683987123243e-01 -2.188613872232955393e-01 1.177305246455626175e+00 3.359805010402265868e-01 2.540360646870383488e-02 -1.336122683712076264e-01 4.406856903179712792e-01 -7.992540407286150006e-02 -6.123621263253423708e-01 -2.856881112183501381e-01 -1.542768995673726717e-01 3.090662212587961810e-01 2.335535270272337094e+00 2.210685758168832449e-01 4.182635281474150202e-01 -1.248320489488232571e-01 3.267570030217928911e-01 4.636730641504394623e-01 -5.028822987731381700e-01 1.378760160752196651e+00 5.017112527090726581e-02 3.643986724212657791e-01 3.063296334576327551e-01 2.827327740838339598e-03 -4.953657964481879006e-01 6.205652551424357677e-01 1.977869969891996871e-01 -3.224601939648933935e-01 3.342612000937846273e-01 2.344300829546389631e-01 1.518108307394680778e-01 -5.282600046640816283e-01 7.866317298938370062e-01 3.010758157885865538e-01 -6.241109369098022386e-01 5.925736548075157817e-01 -1.274283411567988800e-01 2.910883714103600806e+00 -1.389547402955521038e+00 2.289676921830968048e+00 1.005661106624057721e+00 -1.722470281719360230e+00 5.688678016819087579e-01 8.874082073748375266e-02 1.494126861406076534e+00 4.609593211673903568e-01 -4.397943191731401580e-01 -5.216090484245570341e-02 -3.619268376008218102e-02 -4.218667592037814718e-01 5.885168557113875654e-01 -1.003715584345560741e+00 2.027729891940590612e-01 -1.107929696707983247e-01 -1.934944423789588308e+00 4.425824818473366729e-01 8.243293720548519055e-01 -3.859116765495447243e-01 1.041617273820366840e+00 1.412791172537313233e+00 4.391448790667194096e-02 -3.443871251859796256e+00 -4.543704788261482275e-01 4.312651264992912320e-02 -1.513269033340686187e+00 -3.445249036753039173e-01 5.341416382567808485e-01 -4.033565562198813126e-01 -4.385840287344116017e-01 4.768435487854458255e-01 4.492336061557219984e-01 -3.092535088713195268e-01 -9.500156959145908409e-02 -2.356047920766700388e-01 -1.357132010557941415e+00 -2.288685790105882967e-01 8.774297755124943476e-01 5.456063512975670715e-01 -1.172694737084782668e+00 -3.030608459472125538e-01 -3.881200576389355894e-01 -1.362112094687449315e-01 1.644626218794229544e+00 -2.937898515091805329e+00 5.673706263910049952e-01 3.521615186235931283e-01 -3.046345346611995630e+00 -3.771568690437707150e-01 -4.559653308894873747e-01 -6.682216652969190651e-01 2.537898528492244510e-01 1.685872245826582072e-01 1.447748511571530727e+00 2.233375664645905090e+00 -1.777587929513376963e+00 1.179074151184063002e+00 1.485604653788697771e+00 1.554778924251172811e-01 1.283573685497526373e+00 4.371009779782130344e+00 1.160446429439132010e-01 4.129368461159805825e-01 -2.109687917439131977e-01 1.547526415961704149e+00 -8.207438167348947156e-01 -4.979083974592836692e-01 -1.070356997539792632e+00 -1.681267437777571150e+00 2.365667644530917268e+00 2.927122027879477395e-01 5.253853937952808195e-01 -2.733478355046480512e+00 -7.791070368942862867e-01 1.069813189478109772e+00 -1.629360577196880433e+00 -1.329855733377742211e-01 -6.966571693135756860e-01 -1.684585681912748489e+00 3.321995910261137386e-01 -3.750818293259830516e-02 2.453929681343149927e+00 -1.075114393432138743e-01 4.641654363919728299e-01 1.023869419433032085e-01 -1.947400809391809373e+00 7.474214168130060010e-01 2.291104520974614811e+00 -3.610235871731487522e-02 -1.156639080420580334e-01 2.762437411231168372e-01 1.610209893218956356e+00 2.744786898307642442e+00 6.014166078548552896e-01 7.064696212850291035e-01 1.138850115232825200e+00 1.154077730759810017e+00 9.891775146136759789e-01 4.262403458233944287e-01 -1.360022166958650081e+00 1.228086208411004909e+00 1.143393192365157240e+00 1.022201068404157281e-01 -6.117222943031076499e-01 1.221104522718757246e-01 1.807598001918939434e-01 4.583137252986608234e-01 -2.951951601621984334e-01 2.388048298650301771e+00 1.689440175146675660e+00 2.144925357190267112e-01 5.775222749101965869e-01 3.705801771067560590e-01 7.529780675877350005e-01 2.521783270544152716e-04 2.502314930053792241e-01 1.011419385977956553e+00 3.909216278591872706e-01 -1.764525599895286068e-01 2.478624759925385501e-01 -8.641014877641111092e-01 -5.850730951143132685e-01 4.926997186969365172e-01 7.235343413721592176e-01 -9.206295758052247535e-01 -9.533582908735916961e-01 -1.063541240318944592e+00 1.084761162853825761e-01 8.108274362822819326e-01 1.768699552065286507e-01 1.176708630084170926e+00 1.088424072466104064e+00 2.597320689371583335e-01 -6.948353039298403866e-01 1.076230044374675954e+00 -4.709342431211087088e-01 1.017069472054580315e+00 3.243362347978634208e+00 8.965734932123797796e-01 -7.618650510839074519e-01 3.415586802759736085e-02 7.085485130447503055e-01 -1.622840526211674628e-01 -2.989205248767782264e-01 7.934262775302166615e-01 7.836242226584737569e-01 1.082945392120184813e+00 -5.199458846496812781e-01 -2.599127800988027537e-01 -6.200906714898693495e-02 -6.600725669331514167e-02 2.400359518017172178e+00 7.149229288500951185e-01 -3.447805184005610646e-01 9.327902990143510653e-02 2.777850063856565632e-01 -1.999729645846601567e-01 4.665530675196124383e-02 2.236938284329514082e-01 4.699284823042937376e-02 6.940222811218562660e-01 3.076615815949139687e-01 -4.599078033155007406e-01 2.629886847287671969e+00 -1.875247335201512267e-01 5.912953531341914870e-02 7.578097233226293028e-01 -1.138280616223137809e+00 3.057101177944334669e-01 7.866691747698778547e-01 1.164123063970964461e-01 -6.801670160961880152e-01 1.437640042945445673e+00 5.932443480684290726e-01 -3.287367138311930725e-01 -1.104023548195779969e-01 1.390581057524859387e+00 9.876205735531083940e-01 -1.233568692325819338e+00 -3.637055717294856438e-01 -3.958206292343712240e-01 -3.026806213712244786e-01 9.357311252435999149e-01 4.886945751260202697e-01 1.056256340921010173e+00 -2.761749489149037284e+00 6.442113400551739699e-02 1.525927433176950565e+00 1.423010175372270369e+00 -6.372985172926404207e-01 1.164145839634827428e+00 -6.016253866191487720e-01 7.279177987074865186e-01 8.285595724592035444e-03 2.195297368780765979e+00 4.604592112616442967e-01 1.608314526046272341e+00 -1.606708904936983984e-01 8.330155355129698069e-01 -1.155619828500655116e-01 4.802487650671805053e-02 -2.361200976955494524e-01 4.522034287098766758e-01 -5.311767587915025013e-01 2.816944982225823568e-01 -1.994828321582727604e+00 2.965271873752672871e-01 4.808176282467983009e-01 7.770964370944470900e-01 1.185100104906721824e-01 5.742503207047412045e-02 1.286667873851040866e+00 -3.122541531393487002e+00 -2.043597803029236992e+00 -2.821201875342955190e-01 -7.162349490838694488e-02 5.294313412927950102e-01 1.201728692061445836e+00 5.694672640971403244e-01 5.309080979422007296e-01 4.275517229681276565e-01 6.819629844181349654e-01 -1.058863027861287387e+00 3.075036329291995774e-01 -1.446585416033315141e+00 4.450450866939278938e-01 4.209161481088175005e-01 -5.272483658580211507e-01 1.238080677044453903e+00 -1.431895261785428808e+00 1.150760099898165828e-01 -1.711028093483538459e+00 -1.862372772441268642e-01 -9.283979561635836708e-01 -2.804109980550557601e-01 9.162905397019364129e-01 1.249201529606152883e-01 4.821835768048400306e-01 1.197747436416232436e-01 4.818274773495209162e-01 3.828507132640567301e-01 -2.565416206774228103e-01 5.293606542726846387e-01 3.812862085944029866e-01 -1.257240455091962472e+00 -1.340228579142952237e+00 4.194099210006636547e-01 5.218417438668829789e-01 -1.113469586900140751e+00 -1.399817045336871679e+00 1.992572429596465022e-01 -4.051012128000585633e-01 1.401578371347586671e+00 1.400963808670908195e+00 -8.444069198602465187e-01 -1.410857693812243907e+00 6.999682425905829897e-01 1.398548711567101088e-01 -9.779250051848956127e-02 -1.876051290517804837e+00 -4.008651967174817199e-02 4.924499799816462464e-01 -2.237002813757798247e-01 -6.079156168979385488e-02 -3.754666323075642881e-02 2.319754509626299477e+00 6.193344979227991542e-01 -8.784283316246159490e-02 -2.475000395106890849e+00 -1.428180071380599769e-01 3.190141559073610189e+00 2.537308241458721692e-01 3.930674207438054901e-02 1.103652330441704077e+00 3.943421471356537977e-01 1.398281423681353663e+00 3.651517708319039768e-01 -1.234667103504347052e+00 -1.063044854134132522e-01 7.358063766459147503e-01 -8.833902948097654972e-01 2.413538253997348504e-01 8.612897146683714533e-01 -9.137435427208097094e-01 4.173725382156641683e-01 -3.779820358357021126e-01 -1.683113456432582533e-01 5.818281357060858805e-02 -2.000551889472290235e+00 -1.384648245435683656e+00 1.890522096544754171e-02 4.333341717561323830e-04 2.262587828338155305e+00 1.064566824232011877e+00 9.885513612438566466e-02 -5.982910569442986826e-02 1.860913652999978130e-01 1.114722113304844386e+00 2.561077152015379887e+00 3.283099589656048867e-01 1.402273477833638760e-01 -1.443485030050343718e-02 9.133686544259959073e-01 -5.360292339406306228e-01 1.178743202210512875e+00 2.433373105135633541e+00 1.061960540122379060e+00 -3.209045289228495967e-01 2.135881093800842567e+00 9.431542418111995563e-01 -1.439483637477406042e+00 2.630804296506855100e-01 1.474185423493708236e-01 4.357324382857094558e-02 -2.720103660330067674e-01 1.051498944296502591e+00 7.215371177852909490e-01 -2.636181849999491789e+00 9.915125098595214403e-01 3.239248033157310913e-01 -1.596375435169816059e+00 -2.647427461991179107e-02 -1.850646155821115135e-01 -5.906305034879580917e-01 -2.479113309930199849e-01 -5.109012544472467665e-01 -1.213948362909418766e+00 1.401373271812726418e-01 1.723454690329744299e+00 2.656120896469270631e-01 4.325623238444852303e-01 4.014601248317576365e-01 -1.002235802798487452e+00 -5.243625249514227704e-01 7.185544851531466826e-01 -1.227962974050261086e-02 4.133236484871914973e-01 -3.568104393426733134e-01 3.084295327590507729e-01 -5.402555378649188667e-01 8.996645191037574985e-02 9.661843451877750732e-01 -2.540016625185520738e+00 1.812942530877067027e+00 3.637908984609226071e-01 -2.059609469159498829e+00 -2.865428403387983991e-01 2.804462022842153068e+00 -4.616521744394657123e-01 5.052881493503932897e-02 2.111469563443212072e-01 3.072325509772987351e-01 -6.800662746398558056e-01 -7.963434784716105774e-01 2.446665541446898240e-01 -1.553284032893885502e+00 1.162500583122216158e+00 1.052417868905267673e+00 1.366243786037994123e+00 9.438439169006762608e-01 3.268057967437462130e-01 -6.442140134801296880e-02 -6.389441359478037485e-02 7.569077846297349310e-02 4.622336980927407524e+00 2.128297842260267636e+00 -8.287205671285861053e-01 -9.407260022017922829e-02 1.134410324435774609e+00 9.705667199898622144e-01 -5.494864395580011385e-01 9.671639403596741236e-01 -4.556247254471348374e-01 1.065398641392213408e+00 3.548915078242848020e-01 2.486419332795302140e+00 -3.591340870679336078e-02 7.410507115233008757e-02 -6.502343064708584475e-01 4.375884670796587606e-01 -1.016075649738092057e+00 -2.806903080861617994e+00 2.628278981891580268e-01 -1.322595325637308805e-02 1.184727772375165022e+00 5.732424467874408514e-01 -3.376432311583784651e-01 3.375338422928596538e-01 -8.353781346847771738e-02 1.259583647263535999e+00 6.026511112906629553e-02 -1.048760355218579132e+00 -6.090480323519731343e-01 4.639499475443250587e-01 -5.741054348592267154e-01 -8.648098612219654036e-02 2.824935084389552653e+00 -2.651674349887750415e-01 -9.621045227503257635e-01 7.283622954351085532e-01 3.107528664637085325e-01 1.972203716248364547e+00 1.162857987482979194e+00 7.287315170064287972e-01 7.481153682097264612e-01 6.431716321918045098e-01 4.343878758639271170e-02 -2.850261575129700575e-01 3.007706306331492940e-01 8.962389890669932857e-01 1.801333541202719157e+00 1.897064055534168625e-01 -8.950252146396520114e-01 2.193490558249337474e-01 1.145052673091695006e+00 7.647879431937237849e-01 -3.772045876933865505e-01 -3.950826761795646624e-01 6.036876232988341862e-01 7.131401337818350505e-01 -5.452864166616216979e-01 1.879591536447247302e+00 8.062350139755271317e-02 4.051540773913094723e-02 -1.568531028210955747e-01 -3.706886719855675416e-01 -1.324288944569218529e+00 1.517683207872483897e-01 2.653923733463339762e-01 5.204286239827004001e-01 -7.471288325688848486e-01 -5.975960660871802999e-01 5.215613072681735130e-01 7.357692807112351518e-01 2.221590593907020739e-01 1.667385018705659083e-01 1.863136303853080600e+00 -2.790325086036824498e-01 4.562822731370105300e-01 1.648763784234526797e-01 -2.193536298136508744e+00 -1.944332345377613458e-01 -2.470715531297120598e-02 -2.345734805535282685e+00 5.112607914786750918e-01 1.070167194567839958e-01 1.261186071509657614e-01 7.722596342600113184e-01 -4.315550732610772822e-01 -7.262975945283340895e-01 -1.243728008600868684e-01 1.368742733621120422e+00 1.860224073793973476e+00 -1.526183560073846257e+00 1.796254950354755575e+00 4.187896437914779835e-01 4.107182887899477608e-01 -4.126782128189956378e-01 2.182086316560254147e-01 1.264006864388743101e-01 -2.577849786960853540e-01 8.771904635771200082e-03 4.558628109637331838e-02 8.415761743967660191e-01 -2.351450513821498334e-01 -3.192426519291471365e-01 -1.136447610412322451e+00 2.293361702960993398e+00 -1.953411827774733878e+00 -2.941480094104347742e+00 3.943854303354016322e-01 4.242290086356842460e-01 6.919632411311921194e-01 7.747514064486829555e-02 3.943868361835986547e-01 1.142332720513807187e+00 -2.951282061718048522e-01 -3.662179688868654609e-03 -9.237198627691814989e-01 7.928435346863880184e-01 3.867440913083681764e-01 1.330473688474270166e-01 1.417343862475567429e+00 -1.379762000397772859e+00 8.301033846277322548e-01 6.473259741844133996e-01 -1.950913978084759526e-01 2.637560487963093170e+00 2.480113028972685263e-01 -5.354065580139781844e-01 -8.464019819310365511e-01 -1.698116374765316905e-01 -9.439264140744315634e-01 1.429473222669891130e-01 -4.260943375746132356e-01 8.978208767580134753e-01 -9.337226869122949857e-02 1.193340119791843179e+00 -2.054978376044263033e-01 7.017367933974250072e-01 5.687177557167285569e-01 3.766734934806464929e-01 1.708166147090225961e-01 -5.401196476579768202e-01 1.489049995353321221e-01 3.167299998648194226e+00 1.678061001074157899e+00 -8.556735841515550334e-02 8.973786745417872135e-01 7.796324680196061729e-01 1.162459060581514603e+00 7.429212965576138805e-02 2.569208868084114916e-03 5.936702194576741753e-01 -1.135669218377480805e+00 -3.698149481472608191e-02 -1.178063291995321560e-01 -9.202254913670483705e-02 -1.072635057597894681e+00 1.827519258145880121e+00 -4.158612948407771071e-01 3.988744016274198834e-01 3.617670216073785860e-02 9.599321595020846587e-01 -2.202371885170118393e+00 -2.283155414884314449e-01 -4.522720654001849416e-01 2.339252073869276582e+00 1.845196794911841964e-01 -3.589515811051712801e-01 -2.863064142803968259e-01 2.634211005031240616e-01 3.501690782846836880e-01 -4.424648299548121777e+00 -1.558996659886139557e+00 1.170348034327845621e+00 -5.630577197736710837e-02 -1.947663142633949240e+00 8.277647307793182252e-01 6.020160927448051646e-01 3.372361309525095940e+00 -2.047925196235061696e-01 -3.474249470242617654e+00 -2.278073669673525536e+00 1.808987174621996763e+00 1.564974214362659377e-01 6.672615242352348819e-01 -1.617024964661715469e-01 -5.666709840404088316e-01 2.341750696319733482e-01 -1.063168891208083222e+00 1.006490507117814071e+00 1.001263407934093630e+00 -5.108511782239114618e-01 -6.873127800922236297e-01 -3.682986009647603032e-01 -3.266881318839178761e+00 3.085176279837338331e-01 4.383069386683041690e-01 4.549323590295640263e-01 -2.063964482914919962e+00 8.719627417785489332e-01 -2.616390250070856904e-01 5.323409838030783714e-01 1.822372779994395398e+00 1.899904052089048223e+00 9.288465869818379739e-02 4.169551008649149959e-01 4.012738023078261662e-01 4.622608007000453822e-01 -7.697526334127192948e-02 3.264235282212252787e-01 -4.696144366372769774e-01 -3.979310051712059981e-01 4.652593377337466141e-02 6.013351636135073619e-01 -1.119838827532473990e+00 1.440855795974920750e-01 -5.624914473218534106e-02 7.177730138508375823e-01 -5.535900105656599290e-01 1.340969153098076738e+00 5.691611485467350517e-01 2.268201490246792851e+00 -1.509690087078852938e-01 1.471475548465124294e-01 5.189213364704754472e-01 -1.530626256495215554e+00 9.916681169118594097e-01 9.637446053342926255e-01 3.366229854214974448e+00 6.619514165083814072e-01 -5.059196709477453702e-01 -1.296741189020126583e+00 -5.131980186068030303e-01 4.276722947029777677e-04 -2.036569889254193910e+00 1.050532348516566516e+00 4.011156671926741635e-01 1.342091315980778798e+00 5.573335687461468124e-01 9.656078115109094639e-01 1.991325010478177449e+00 -5.588160841659494116e-01 -9.073005298609461144e-01 -1.452319450358817154e-01 -2.083821237685014663e-02 -2.112294411859696464e-01 9.346418905047473857e-02 3.579179605360331418e-01 1.535663018690979487e-01 7.591103031932312506e-01 1.609388666026309256e+00 -1.472145060101553715e-01 -9.076228156987118378e-01 -5.024498684308386087e-01 -3.536277504535693256e-02 1.084833995681532492e+00 7.055998495889311828e-01 9.378137079434412104e-01 -2.923612743812407100e-01 2.599743136413154576e-01 4.147375489849181029e+00 -4.077301323414346812e-01 -2.008839754997752691e-01 -3.260156343543632596e-01 6.884554613779048093e-01 -2.789488965156902367e+00 4.760955183113586564e-01 1.650960073395907335e-01 9.577279162374321975e-02 1.959824809056466277e-01 4.364821375250753643e-01 6.268011085782800862e-01 -1.284502795324433677e+00 3.289430272076912520e-01 -4.002692662934571599e-01 7.112122836752349242e-01 -1.589261645130481404e-01 3.542187421438140471e-01 9.275062318648137349e-01 -3.851783823837426346e-01 1.566854710390480632e+00 7.120834828011087803e-01 -2.671465926877175656e-01 2.909514232829899516e-01 1.123648376064317889e+00 -2.313664724336759626e+00 1.333981162189687542e+00 5.618109443797302260e-01 -3.701787527028248259e-02 2.121435486947030602e-01 1.198413598984384265e+00 1.348756525296092301e-01 1.426328587888995303e-01 -5.082382533818856629e-01 8.153172997979251102e-01 7.127131825113215413e-01 1.170011512888699867e+00 3.851317096828833497e-01 6.176845132529833471e-01 1.581946257404202250e+00 5.327250362896748248e-01 1.643875406572519626e+00 2.551980657008279252e+00 1.420672704563527677e+00 -4.921899051398715419e-01 -1.867264646562664110e-01 7.077757502405471746e-01 -1.166869817024503986e+00 6.941892780939435958e-01 9.890165374625220496e-01 -2.065482005013997285e-02 5.950381381813891757e-01 4.257408111575977094e-01 4.981812397654201696e-01 -3.955824938490574150e-01 7.097338660528909049e-01 1.618234915366540738e+00 -4.280963499638928971e-01 -1.059059633013503948e-01 -1.264392667256507785e+00 -1.384646639305474880e-01 2.066674074570460817e+00 -1.595625336004927286e+00 -3.749893762541778863e-01 5.243310850180091798e-01 -4.615040247324552758e-01 -1.905507502197685943e+00 -6.505098896652157237e-01 -2.594786655736042169e-01 2.329710634434200678e+00 5.728933704038579044e-01 2.557757097387944323e-02 1.155297762718638266e+00 -8.544459083217714745e-01 -7.314304047914061968e-01 5.687800995457437114e-01 -2.827370259461108315e-01 3.879573897660964499e-01 7.769036388165748708e-01 5.630370240763947765e-01 -3.120490366896048751e-01 5.026374119072224422e-01 8.754627121466098671e-01 2.076253679597549251e+00 -9.556564524749682210e-01 -1.425658212575808825e-01 -8.711208556017947524e-01 9.476497191875574710e-01 3.964289204135856282e-01 2.905253949709207806e-01 -1.794223361568174913e-01 9.296855143151916412e-01 3.671336368192264499e-01 -1.152944889196445333e+00 2.043099432347897648e-01 7.016258184908234774e-02 -1.477731479965277150e-01 1.855084264235989100e-01 9.415452000962016843e-01 5.232745230244107981e-01 -1.680100662622513230e+00 -4.136249067379591526e-01 1.528499578061038422e+00 7.455374084129595680e-01 -3.599621775010644953e+00 -5.424654464268121590e-01 -9.034208255649716079e-01 1.093163907806265905e-01 -4.049111885120391663e-01 -5.813485280118018128e-01 -1.633453871970736548e+00 9.207269986609646351e-01 4.838835726513014968e-01 -3.259167548479870447e-01 -4.340692295316238569e-01 2.243342549353844195e-01 -5.726645495554705256e-01 -1.501737451865050865e-01 -7.122314536929799655e-02 -1.034461992885452736e-01 -2.728640404258186325e-01 2.896992158882448765e-01 8.901108356433211632e-01 -1.381229057145951566e+00 -1.973428926172795528e-01 3.780384152739079684e-01 3.680938617991887929e-01 -5.833273083408798687e-01 1.975041899403575940e-01 1.323142783346137885e-01 -1.309182009295389582e-01 -1.887242487911578337e+00 7.776214857409076142e-01 -6.663843650065678359e-01 -3.818119397606284937e-01 -1.345625352378745920e-02 2.318117091175821987e+00 8.109172081901726281e-02 -3.062807978288114352e+00 -1.909323887567674349e-01 -1.511301287881421096e-01 8.412581947379257907e-02 2.285742424671992068e-01 7.417099012967349747e-01 1.964751297505795469e+00 -2.484862368418472300e-02 1.573685260934819086e+00 7.262437605292537679e-02 1.218084906273313672e+00 -4.643891115946773285e-01 2.989197157860238319e-01 7.053546654952180806e-01 1.226923635831925985e+00 -1.323125394519675257e-03 5.336868180625918834e-01 -1.117114788680173110e+00 3.195360056400490256e-01 8.696897903758441517e-01 9.556479441039195111e-01 8.629494822459444769e-01 2.119800960778649990e-01 1.024710356339282979e+00 3.677260582730675353e-01 2.620331422617697137e-01 -2.084374658715897333e+00 1.015616558111470669e+00 -2.572881181812595397e+00 -6.625339050097769356e-01 -2.727209925384000422e-01 7.838755957685639153e-01 5.538919473620494971e-01 -4.164070542063740277e-01 5.032323064927944900e-01 3.528412519308966044e-01 7.273069204645519203e-01 2.434878308180849216e-01 6.859455581027299464e-01 1.441679867562309258e+00 1.323035305480459334e+00 6.834386277078006167e-01 -1.194001966563053241e+00 1.547734278677889819e+00 -8.606689597814621839e-01 1.000971025482211063e+00 2.628475966548927678e-01 6.807199037220965643e-01 -1.434862100573148710e-02 -3.929189455934561925e-01 -2.589175383210409742e-01 5.014958942278919807e-01 6.175568452251966114e-03 -3.136322317745285915e-01 2.101390193673494666e-01 5.282015202977268231e-01 -5.378261965172874692e-01 8.035700230412253786e-01 -1.512065313840141201e+00 2.270149611053608130e+00 8.090839529035269706e-01 -1.031035546048444385e+00 5.510892736821256799e-01 5.161586166005158183e-02 4.454973336368247411e-02 1.471972433957468296e-01 -2.588428708223080021e-01 2.225458901392096234e+00 -2.559043298637206476e+00 7.470563820497533314e-01 -1.365243426609424438e+00 -2.029470949556436699e-01 2.299927638066979751e-01 -8.287491176288392936e-01 -1.228998355796406150e+00 5.369770334285044466e-01 7.247981984598639293e-01 3.787754018340521722e-01 1.151017821593846024e+00 -7.978359461239932227e-01 1.793806008799258889e+00 1.006573175253106633e+00 6.428810613993291012e-01 -9.947265085584362510e-01 -5.080626270525852028e-01 6.452355547760632026e-01 1.120924758246023556e+00 4.165498855007278567e-01 1.249669548663851770e-01 9.059522054070862085e-02 -1.941419057363744094e-01 -1.044322997738018843e+00 2.969502526089476402e-01 -4.049513594364189117e-01 1.412321171103004591e+00 2.164450988392524255e+00 5.080500162776681039e-01 4.149267929055127646e-01 -8.602954171338991207e-01 -3.923827783560021043e-01 -1.967758461809361537e+00 4.687874227322742504e-01 -2.335840938951101176e-01 5.838203716023341316e-01 -3.344989121634121876e+00 -3.652143869263794418e+00 2.148412246028111205e+00 -1.083986711664312708e+00 -1.177426731173157659e+00 -9.028905605207607210e-02 8.252481223366843199e-01 -1.534443319008664819e+00 6.223747884743691117e-01 1.189660116521784466e-01 7.037035294608072755e-01 5.087714645221245308e-02 -5.221642105864640060e-01 2.390071271521229945e-01 3.785779084234614511e-01 2.226184732778240694e+00 -1.166625307345836027e-01 3.896532190158348286e-01 9.119104921295093646e-01 1.410738461462258952e-01 6.697433111304981201e-01 -7.705465411769231443e-03 2.010509981588937123e-02 -3.025327600221627278e-01 -2.320271709820124761e-01 8.957815231265124634e-02 2.175730107706402627e+00 1.904758297933643041e-01 1.979340186620709874e+00 -7.776424502464698296e-01 2.507813536998311776e-01 9.768884804728947269e-02 4.888704060749579083e-01 -7.068668405698890211e-01 -2.624265080998015254e+00 -3.134074493913451276e-01 2.548868650003686120e-01 3.384548701025381079e-01 -1.352099186214142046e+00 7.700269249454672060e-01 6.649739124624759468e-01 7.012420110455872546e-01 6.475232012308042018e-01 6.685926799850542279e-01 1.256353252151859001e+00 -7.603734840414151652e-02 7.723542307650115291e-01 5.629066705111976932e-01 1.753997031889841240e-01 -1.836054713174044839e-01 -1.168022869936995167e-02 -4.762228061357547393e-01 3.691229015459905893e-01 7.516968468042732887e-01 -8.027948100164123552e-03 -1.431641271180129626e+00 7.283341619210395024e-01 1.535993895366420281e+00 4.963605094357187220e+00 4.967553538933421886e-01 6.786549805033356142e-01 6.233457668204678281e-01 1.997630289120363667e+00 -3.523238959403562909e+00 4.806638019353339647e-02 -1.146659989781197764e+00 5.182422051971523613e-01 -9.277719468680037940e-01 8.703772690083086960e-01 2.467271014029702447e-02 -1.579989318130199383e-01 -1.137636937133201520e-01 -6.626822341254300364e-01
