# 
#                 ----------------------------------------------------
#                 Data from a 3D direct N-body simulation. 
# 
#                 rows are i-particle; 
#                 coumns are :mass, tag, x ,y, z, vx, vy, vz, ax, ay, az
# 
#                 NTHU, Computational Physics 
# 
#                 ----------------------------------------------------
#                 Time = 0.0
0.000000000000000000e+00 1.000000000000000000e+00 2.000000000000000000e+00 3.000000000000000000e+00 4.000000000000000000e+00 5.000000000000000000e+00 6.000000000000000000e+00 7.000000000000000000e+00 8.000000000000000000e+00 9.000000000000000000e+00 1.000000000000000000e+01 1.100000000000000000e+01 1.200000000000000000e+01 1.300000000000000000e+01 1.400000000000000000e+01 1.500000000000000000e+01 1.600000000000000000e+01 1.700000000000000000e+01 1.800000000000000000e+01 1.900000000000000000e+01 2.000000000000000000e+01 2.100000000000000000e+01 2.200000000000000000e+01 2.300000000000000000e+01 2.400000000000000000e+01 2.500000000000000000e+01 2.600000000000000000e+01 2.700000000000000000e+01 2.800000000000000000e+01 2.900000000000000000e+01 3.000000000000000000e+01 3.100000000000000000e+01 3.200000000000000000e+01 3.300000000000000000e+01 3.400000000000000000e+01 3.500000000000000000e+01 3.600000000000000000e+01 3.700000000000000000e+01 3.800000000000000000e+01 3.900000000000000000e+01 4.000000000000000000e+01 4.100000000000000000e+01 4.200000000000000000e+01 4.300000000000000000e+01 4.400000000000000000e+01 4.500000000000000000e+01 4.600000000000000000e+01 4.700000000000000000e+01 4.800000000000000000e+01 4.900000000000000000e+01 5.000000000000000000e+01 5.100000000000000000e+01 5.200000000000000000e+01 5.300000000000000000e+01 5.400000000000000000e+01 5.500000000000000000e+01 5.600000000000000000e+01 5.700000000000000000e+01 5.800000000000000000e+01 5.900000000000000000e+01 6.000000000000000000e+01 6.100000000000000000e+01 6.200000000000000000e+01 6.300000000000000000e+01 6.400000000000000000e+01 6.500000000000000000e+01 6.600000000000000000e+01 6.700000000000000000e+01 6.800000000000000000e+01 6.900000000000000000e+01 7.000000000000000000e+01 7.100000000000000000e+01 7.200000000000000000e+01 7.300000000000000000e+01 7.400000000000000000e+01 7.500000000000000000e+01 7.600000000000000000e+01 7.700000000000000000e+01 7.800000000000000000e+01 7.900000000000000000e+01 8.000000000000000000e+01 8.100000000000000000e+01 8.200000000000000000e+01 8.300000000000000000e+01 8.400000000000000000e+01 8.500000000000000000e+01 8.600000000000000000e+01 8.700000000000000000e+01 8.800000000000000000e+01 8.900000000000000000e+01 9.000000000000000000e+01 9.100000000000000000e+01 9.200000000000000000e+01 9.300000000000000000e+01 9.400000000000000000e+01 9.500000000000000000e+01 9.600000000000000000e+01 9.700000000000000000e+01 9.800000000000000000e+01 9.900000000000000000e+01 1.000000000000000000e+02 1.010000000000000000e+02 1.020000000000000000e+02 1.030000000000000000e+02 1.040000000000000000e+02 1.050000000000000000e+02 1.060000000000000000e+02 1.070000000000000000e+02 1.080000000000000000e+02 1.090000000000000000e+02 1.100000000000000000e+02 1.110000000000000000e+02 1.120000000000000000e+02 1.130000000000000000e+02 1.140000000000000000e+02 1.150000000000000000e+02 1.160000000000000000e+02 1.170000000000000000e+02 1.180000000000000000e+02 1.190000000000000000e+02 1.200000000000000000e+02 1.210000000000000000e+02 1.220000000000000000e+02 1.230000000000000000e+02 1.240000000000000000e+02 1.250000000000000000e+02 1.260000000000000000e+02 1.270000000000000000e+02 1.280000000000000000e+02 1.290000000000000000e+02 1.300000000000000000e+02 1.310000000000000000e+02 1.320000000000000000e+02 1.330000000000000000e+02 1.340000000000000000e+02 1.350000000000000000e+02 1.360000000000000000e+02 1.370000000000000000e+02 1.380000000000000000e+02 1.390000000000000000e+02 1.400000000000000000e+02 1.410000000000000000e+02 1.420000000000000000e+02 1.430000000000000000e+02 1.440000000000000000e+02 1.450000000000000000e+02 1.460000000000000000e+02 1.470000000000000000e+02 1.480000000000000000e+02 1.490000000000000000e+02 1.500000000000000000e+02 1.510000000000000000e+02 1.520000000000000000e+02 1.530000000000000000e+02 1.540000000000000000e+02 1.550000000000000000e+02 1.560000000000000000e+02 1.570000000000000000e+02 1.580000000000000000e+02 1.590000000000000000e+02 1.600000000000000000e+02 1.610000000000000000e+02 1.620000000000000000e+02 1.630000000000000000e+02 1.640000000000000000e+02 1.650000000000000000e+02 1.660000000000000000e+02 1.670000000000000000e+02 1.680000000000000000e+02 1.690000000000000000e+02 1.700000000000000000e+02 1.710000000000000000e+02 1.720000000000000000e+02 1.730000000000000000e+02 1.740000000000000000e+02 1.750000000000000000e+02 1.760000000000000000e+02 1.770000000000000000e+02 1.780000000000000000e+02 1.790000000000000000e+02 1.800000000000000000e+02 1.810000000000000000e+02 1.820000000000000000e+02 1.830000000000000000e+02 1.840000000000000000e+02 1.850000000000000000e+02 1.860000000000000000e+02 1.870000000000000000e+02 1.880000000000000000e+02 1.890000000000000000e+02 1.900000000000000000e+02 1.910000000000000000e+02 1.920000000000000000e+02 1.930000000000000000e+02 1.940000000000000000e+02 1.950000000000000000e+02 1.960000000000000000e+02 1.970000000000000000e+02 1.980000000000000000e+02 1.990000000000000000e+02 2.000000000000000000e+02 2.010000000000000000e+02 2.020000000000000000e+02 2.030000000000000000e+02 2.040000000000000000e+02 2.050000000000000000e+02 2.060000000000000000e+02 2.070000000000000000e+02 2.080000000000000000e+02 2.090000000000000000e+02 2.100000000000000000e+02 2.110000000000000000e+02 2.120000000000000000e+02 2.130000000000000000e+02 2.140000000000000000e+02 2.150000000000000000e+02 2.160000000000000000e+02 2.170000000000000000e+02 2.180000000000000000e+02 2.190000000000000000e+02 2.200000000000000000e+02 2.210000000000000000e+02 2.220000000000000000e+02 2.230000000000000000e+02 2.240000000000000000e+02 2.250000000000000000e+02 2.260000000000000000e+02 2.270000000000000000e+02 2.280000000000000000e+02 2.290000000000000000e+02 2.300000000000000000e+02 2.310000000000000000e+02 2.320000000000000000e+02 2.330000000000000000e+02 2.340000000000000000e+02 2.350000000000000000e+02 2.360000000000000000e+02 2.370000000000000000e+02 2.380000000000000000e+02 2.390000000000000000e+02 2.400000000000000000e+02 2.410000000000000000e+02 2.420000000000000000e+02 2.430000000000000000e+02 2.440000000000000000e+02 2.450000000000000000e+02 2.460000000000000000e+02 2.470000000000000000e+02 2.480000000000000000e+02 2.490000000000000000e+02 2.500000000000000000e+02 2.510000000000000000e+02 2.520000000000000000e+02 2.530000000000000000e+02 2.540000000000000000e+02 2.550000000000000000e+02 2.560000000000000000e+02 2.570000000000000000e+02 2.580000000000000000e+02 2.590000000000000000e+02 2.600000000000000000e+02 2.610000000000000000e+02 2.620000000000000000e+02 2.630000000000000000e+02 2.640000000000000000e+02 2.650000000000000000e+02 2.660000000000000000e+02 2.670000000000000000e+02 2.680000000000000000e+02 2.690000000000000000e+02 2.700000000000000000e+02 2.710000000000000000e+02 2.720000000000000000e+02 2.730000000000000000e+02 2.740000000000000000e+02 2.750000000000000000e+02 2.760000000000000000e+02 2.770000000000000000e+02 2.780000000000000000e+02 2.790000000000000000e+02 2.800000000000000000e+02 2.810000000000000000e+02 2.820000000000000000e+02 2.830000000000000000e+02 2.840000000000000000e+02 2.850000000000000000e+02 2.860000000000000000e+02 2.870000000000000000e+02 2.880000000000000000e+02 2.890000000000000000e+02 2.900000000000000000e+02 2.910000000000000000e+02 2.920000000000000000e+02 2.930000000000000000e+02 2.940000000000000000e+02 2.950000000000000000e+02 2.960000000000000000e+02 2.970000000000000000e+02 2.980000000000000000e+02 2.990000000000000000e+02 3.000000000000000000e+02 3.010000000000000000e+02 3.020000000000000000e+02 3.030000000000000000e+02 3.040000000000000000e+02 3.050000000000000000e+02 3.060000000000000000e+02 3.070000000000000000e+02 3.080000000000000000e+02 3.090000000000000000e+02 3.100000000000000000e+02 3.110000000000000000e+02 3.120000000000000000e+02 3.130000000000000000e+02 3.140000000000000000e+02 3.150000000000000000e+02 3.160000000000000000e+02 3.170000000000000000e+02 3.180000000000000000e+02 3.190000000000000000e+02 3.200000000000000000e+02 3.210000000000000000e+02 3.220000000000000000e+02 3.230000000000000000e+02 3.240000000000000000e+02 3.250000000000000000e+02 3.260000000000000000e+02 3.270000000000000000e+02 3.280000000000000000e+02 3.290000000000000000e+02 3.300000000000000000e+02 3.310000000000000000e+02 3.320000000000000000e+02 3.330000000000000000e+02 3.340000000000000000e+02 3.350000000000000000e+02 3.360000000000000000e+02 3.370000000000000000e+02 3.380000000000000000e+02 3.390000000000000000e+02 3.400000000000000000e+02 3.410000000000000000e+02 3.420000000000000000e+02 3.430000000000000000e+02 3.440000000000000000e+02 3.450000000000000000e+02 3.460000000000000000e+02 3.470000000000000000e+02 3.480000000000000000e+02 3.490000000000000000e+02 3.500000000000000000e+02 3.510000000000000000e+02 3.520000000000000000e+02 3.530000000000000000e+02 3.540000000000000000e+02 3.550000000000000000e+02 3.560000000000000000e+02 3.570000000000000000e+02 3.580000000000000000e+02 3.590000000000000000e+02 3.600000000000000000e+02 3.610000000000000000e+02 3.620000000000000000e+02 3.630000000000000000e+02 3.640000000000000000e+02 3.650000000000000000e+02 3.660000000000000000e+02 3.670000000000000000e+02 3.680000000000000000e+02 3.690000000000000000e+02 3.700000000000000000e+02 3.710000000000000000e+02 3.720000000000000000e+02 3.730000000000000000e+02 3.740000000000000000e+02 3.750000000000000000e+02 3.760000000000000000e+02 3.770000000000000000e+02 3.780000000000000000e+02 3.790000000000000000e+02 3.800000000000000000e+02 3.810000000000000000e+02 3.820000000000000000e+02 3.830000000000000000e+02 3.840000000000000000e+02 3.850000000000000000e+02 3.860000000000000000e+02 3.870000000000000000e+02 3.880000000000000000e+02 3.890000000000000000e+02 3.900000000000000000e+02 3.910000000000000000e+02 3.920000000000000000e+02 3.930000000000000000e+02 3.940000000000000000e+02 3.950000000000000000e+02 3.960000000000000000e+02 3.970000000000000000e+02 3.980000000000000000e+02 3.990000000000000000e+02 4.000000000000000000e+02 4.010000000000000000e+02 4.020000000000000000e+02 4.030000000000000000e+02 4.040000000000000000e+02 4.050000000000000000e+02 4.060000000000000000e+02 4.070000000000000000e+02 4.080000000000000000e+02 4.090000000000000000e+02 4.100000000000000000e+02 4.110000000000000000e+02 4.120000000000000000e+02 4.130000000000000000e+02 4.140000000000000000e+02 4.150000000000000000e+02 4.160000000000000000e+02 4.170000000000000000e+02 4.180000000000000000e+02 4.190000000000000000e+02 4.200000000000000000e+02 4.210000000000000000e+02 4.220000000000000000e+02 4.230000000000000000e+02 4.240000000000000000e+02 4.250000000000000000e+02 4.260000000000000000e+02 4.270000000000000000e+02 4.280000000000000000e+02 4.290000000000000000e+02 4.300000000000000000e+02 4.310000000000000000e+02 4.320000000000000000e+02 4.330000000000000000e+02 4.340000000000000000e+02 4.350000000000000000e+02 4.360000000000000000e+02 4.370000000000000000e+02 4.380000000000000000e+02 4.390000000000000000e+02 4.400000000000000000e+02 4.410000000000000000e+02 4.420000000000000000e+02 4.430000000000000000e+02 4.440000000000000000e+02 4.450000000000000000e+02 4.460000000000000000e+02 4.470000000000000000e+02 4.480000000000000000e+02 4.490000000000000000e+02 4.500000000000000000e+02 4.510000000000000000e+02 4.520000000000000000e+02 4.530000000000000000e+02 4.540000000000000000e+02 4.550000000000000000e+02 4.560000000000000000e+02 4.570000000000000000e+02 4.580000000000000000e+02 4.590000000000000000e+02 4.600000000000000000e+02 4.610000000000000000e+02 4.620000000000000000e+02 4.630000000000000000e+02 4.640000000000000000e+02 4.650000000000000000e+02 4.660000000000000000e+02 4.670000000000000000e+02 4.680000000000000000e+02 4.690000000000000000e+02 4.700000000000000000e+02 4.710000000000000000e+02 4.720000000000000000e+02 4.730000000000000000e+02 4.740000000000000000e+02 4.750000000000000000e+02 4.760000000000000000e+02 4.770000000000000000e+02 4.780000000000000000e+02 4.790000000000000000e+02 4.800000000000000000e+02 4.810000000000000000e+02 4.820000000000000000e+02 4.830000000000000000e+02 4.840000000000000000e+02 4.850000000000000000e+02 4.860000000000000000e+02 4.870000000000000000e+02 4.880000000000000000e+02 4.890000000000000000e+02 4.900000000000000000e+02 4.910000000000000000e+02 4.920000000000000000e+02 4.930000000000000000e+02 4.940000000000000000e+02 4.950000000000000000e+02 4.960000000000000000e+02 4.970000000000000000e+02 4.980000000000000000e+02 4.990000000000000000e+02 5.000000000000000000e+02 5.010000000000000000e+02 5.020000000000000000e+02 5.030000000000000000e+02 5.040000000000000000e+02 5.050000000000000000e+02 5.060000000000000000e+02 5.070000000000000000e+02 5.080000000000000000e+02 5.090000000000000000e+02 5.100000000000000000e+02 5.110000000000000000e+02 5.120000000000000000e+02 5.130000000000000000e+02 5.140000000000000000e+02 5.150000000000000000e+02 5.160000000000000000e+02 5.170000000000000000e+02 5.180000000000000000e+02 5.190000000000000000e+02 5.200000000000000000e+02 5.210000000000000000e+02 5.220000000000000000e+02 5.230000000000000000e+02 5.240000000000000000e+02 5.250000000000000000e+02 5.260000000000000000e+02 5.270000000000000000e+02 5.280000000000000000e+02 5.290000000000000000e+02 5.300000000000000000e+02 5.310000000000000000e+02 5.320000000000000000e+02 5.330000000000000000e+02 5.340000000000000000e+02 5.350000000000000000e+02 5.360000000000000000e+02 5.370000000000000000e+02 5.380000000000000000e+02 5.390000000000000000e+02 5.400000000000000000e+02 5.410000000000000000e+02 5.420000000000000000e+02 5.430000000000000000e+02 5.440000000000000000e+02 5.450000000000000000e+02 5.460000000000000000e+02 5.470000000000000000e+02 5.480000000000000000e+02 5.490000000000000000e+02 5.500000000000000000e+02 5.510000000000000000e+02 5.520000000000000000e+02 5.530000000000000000e+02 5.540000000000000000e+02 5.550000000000000000e+02 5.560000000000000000e+02 5.570000000000000000e+02 5.580000000000000000e+02 5.590000000000000000e+02 5.600000000000000000e+02 5.610000000000000000e+02 5.620000000000000000e+02 5.630000000000000000e+02 5.640000000000000000e+02 5.650000000000000000e+02 5.660000000000000000e+02 5.670000000000000000e+02 5.680000000000000000e+02 5.690000000000000000e+02 5.700000000000000000e+02 5.710000000000000000e+02 5.720000000000000000e+02 5.730000000000000000e+02 5.740000000000000000e+02 5.750000000000000000e+02 5.760000000000000000e+02 5.770000000000000000e+02 5.780000000000000000e+02 5.790000000000000000e+02 5.800000000000000000e+02 5.810000000000000000e+02 5.820000000000000000e+02 5.830000000000000000e+02 5.840000000000000000e+02 5.850000000000000000e+02 5.860000000000000000e+02 5.870000000000000000e+02 5.880000000000000000e+02 5.890000000000000000e+02 5.900000000000000000e+02 5.910000000000000000e+02 5.920000000000000000e+02 5.930000000000000000e+02 5.940000000000000000e+02 5.950000000000000000e+02 5.960000000000000000e+02 5.970000000000000000e+02 5.980000000000000000e+02 5.990000000000000000e+02 6.000000000000000000e+02 6.010000000000000000e+02 6.020000000000000000e+02 6.030000000000000000e+02 6.040000000000000000e+02 6.050000000000000000e+02 6.060000000000000000e+02 6.070000000000000000e+02 6.080000000000000000e+02 6.090000000000000000e+02 6.100000000000000000e+02 6.110000000000000000e+02 6.120000000000000000e+02 6.130000000000000000e+02 6.140000000000000000e+02 6.150000000000000000e+02 6.160000000000000000e+02 6.170000000000000000e+02 6.180000000000000000e+02 6.190000000000000000e+02 6.200000000000000000e+02 6.210000000000000000e+02 6.220000000000000000e+02 6.230000000000000000e+02 6.240000000000000000e+02 6.250000000000000000e+02 6.260000000000000000e+02 6.270000000000000000e+02 6.280000000000000000e+02 6.290000000000000000e+02 6.300000000000000000e+02 6.310000000000000000e+02 6.320000000000000000e+02 6.330000000000000000e+02 6.340000000000000000e+02 6.350000000000000000e+02 6.360000000000000000e+02 6.370000000000000000e+02 6.380000000000000000e+02 6.390000000000000000e+02 6.400000000000000000e+02 6.410000000000000000e+02 6.420000000000000000e+02 6.430000000000000000e+02 6.440000000000000000e+02 6.450000000000000000e+02 6.460000000000000000e+02 6.470000000000000000e+02 6.480000000000000000e+02 6.490000000000000000e+02 6.500000000000000000e+02 6.510000000000000000e+02 6.520000000000000000e+02 6.530000000000000000e+02 6.540000000000000000e+02 6.550000000000000000e+02 6.560000000000000000e+02 6.570000000000000000e+02 6.580000000000000000e+02 6.590000000000000000e+02 6.600000000000000000e+02 6.610000000000000000e+02 6.620000000000000000e+02 6.630000000000000000e+02 6.640000000000000000e+02 6.650000000000000000e+02 6.660000000000000000e+02 6.670000000000000000e+02 6.680000000000000000e+02 6.690000000000000000e+02 6.700000000000000000e+02 6.710000000000000000e+02 6.720000000000000000e+02 6.730000000000000000e+02 6.740000000000000000e+02 6.750000000000000000e+02 6.760000000000000000e+02 6.770000000000000000e+02 6.780000000000000000e+02 6.790000000000000000e+02 6.800000000000000000e+02 6.810000000000000000e+02 6.820000000000000000e+02 6.830000000000000000e+02 6.840000000000000000e+02 6.850000000000000000e+02 6.860000000000000000e+02 6.870000000000000000e+02 6.880000000000000000e+02 6.890000000000000000e+02 6.900000000000000000e+02 6.910000000000000000e+02 6.920000000000000000e+02 6.930000000000000000e+02 6.940000000000000000e+02 6.950000000000000000e+02 6.960000000000000000e+02 6.970000000000000000e+02 6.980000000000000000e+02 6.990000000000000000e+02 7.000000000000000000e+02 7.010000000000000000e+02 7.020000000000000000e+02 7.030000000000000000e+02 7.040000000000000000e+02 7.050000000000000000e+02 7.060000000000000000e+02 7.070000000000000000e+02 7.080000000000000000e+02 7.090000000000000000e+02 7.100000000000000000e+02 7.110000000000000000e+02 7.120000000000000000e+02 7.130000000000000000e+02 7.140000000000000000e+02 7.150000000000000000e+02 7.160000000000000000e+02 7.170000000000000000e+02 7.180000000000000000e+02 7.190000000000000000e+02 7.200000000000000000e+02 7.210000000000000000e+02 7.220000000000000000e+02 7.230000000000000000e+02 7.240000000000000000e+02 7.250000000000000000e+02 7.260000000000000000e+02 7.270000000000000000e+02 7.280000000000000000e+02 7.290000000000000000e+02 7.300000000000000000e+02 7.310000000000000000e+02 7.320000000000000000e+02 7.330000000000000000e+02 7.340000000000000000e+02 7.350000000000000000e+02 7.360000000000000000e+02 7.370000000000000000e+02 7.380000000000000000e+02 7.390000000000000000e+02 7.400000000000000000e+02 7.410000000000000000e+02 7.420000000000000000e+02 7.430000000000000000e+02 7.440000000000000000e+02 7.450000000000000000e+02 7.460000000000000000e+02 7.470000000000000000e+02 7.480000000000000000e+02 7.490000000000000000e+02 7.500000000000000000e+02 7.510000000000000000e+02 7.520000000000000000e+02 7.530000000000000000e+02 7.540000000000000000e+02 7.550000000000000000e+02 7.560000000000000000e+02 7.570000000000000000e+02 7.580000000000000000e+02 7.590000000000000000e+02 7.600000000000000000e+02 7.610000000000000000e+02 7.620000000000000000e+02 7.630000000000000000e+02 7.640000000000000000e+02 7.650000000000000000e+02 7.660000000000000000e+02 7.670000000000000000e+02 7.680000000000000000e+02 7.690000000000000000e+02 7.700000000000000000e+02 7.710000000000000000e+02 7.720000000000000000e+02 7.730000000000000000e+02 7.740000000000000000e+02 7.750000000000000000e+02 7.760000000000000000e+02 7.770000000000000000e+02 7.780000000000000000e+02 7.790000000000000000e+02 7.800000000000000000e+02 7.810000000000000000e+02 7.820000000000000000e+02 7.830000000000000000e+02 7.840000000000000000e+02 7.850000000000000000e+02 7.860000000000000000e+02 7.870000000000000000e+02 7.880000000000000000e+02 7.890000000000000000e+02 7.900000000000000000e+02 7.910000000000000000e+02 7.920000000000000000e+02 7.930000000000000000e+02 7.940000000000000000e+02 7.950000000000000000e+02 7.960000000000000000e+02 7.970000000000000000e+02 7.980000000000000000e+02 7.990000000000000000e+02 8.000000000000000000e+02 8.010000000000000000e+02 8.020000000000000000e+02 8.030000000000000000e+02 8.040000000000000000e+02 8.050000000000000000e+02 8.060000000000000000e+02 8.070000000000000000e+02 8.080000000000000000e+02 8.090000000000000000e+02 8.100000000000000000e+02 8.110000000000000000e+02 8.120000000000000000e+02 8.130000000000000000e+02 8.140000000000000000e+02 8.150000000000000000e+02 8.160000000000000000e+02 8.170000000000000000e+02 8.180000000000000000e+02 8.190000000000000000e+02 8.200000000000000000e+02 8.210000000000000000e+02 8.220000000000000000e+02 8.230000000000000000e+02 8.240000000000000000e+02 8.250000000000000000e+02 8.260000000000000000e+02 8.270000000000000000e+02 8.280000000000000000e+02 8.290000000000000000e+02 8.300000000000000000e+02 8.310000000000000000e+02 8.320000000000000000e+02 8.330000000000000000e+02 8.340000000000000000e+02 8.350000000000000000e+02 8.360000000000000000e+02 8.370000000000000000e+02 8.380000000000000000e+02 8.390000000000000000e+02 8.400000000000000000e+02 8.410000000000000000e+02 8.420000000000000000e+02 8.430000000000000000e+02 8.440000000000000000e+02 8.450000000000000000e+02 8.460000000000000000e+02 8.470000000000000000e+02 8.480000000000000000e+02 8.490000000000000000e+02 8.500000000000000000e+02 8.510000000000000000e+02 8.520000000000000000e+02 8.530000000000000000e+02 8.540000000000000000e+02 8.550000000000000000e+02 8.560000000000000000e+02 8.570000000000000000e+02 8.580000000000000000e+02 8.590000000000000000e+02 8.600000000000000000e+02 8.610000000000000000e+02 8.620000000000000000e+02 8.630000000000000000e+02 8.640000000000000000e+02 8.650000000000000000e+02 8.660000000000000000e+02 8.670000000000000000e+02 8.680000000000000000e+02 8.690000000000000000e+02 8.700000000000000000e+02 8.710000000000000000e+02 8.720000000000000000e+02 8.730000000000000000e+02 8.740000000000000000e+02 8.750000000000000000e+02 8.760000000000000000e+02 8.770000000000000000e+02 8.780000000000000000e+02 8.790000000000000000e+02 8.800000000000000000e+02 8.810000000000000000e+02 8.820000000000000000e+02 8.830000000000000000e+02 8.840000000000000000e+02 8.850000000000000000e+02 8.860000000000000000e+02 8.870000000000000000e+02 8.880000000000000000e+02 8.890000000000000000e+02 8.900000000000000000e+02 8.910000000000000000e+02 8.920000000000000000e+02 8.930000000000000000e+02 8.940000000000000000e+02 8.950000000000000000e+02 8.960000000000000000e+02 8.970000000000000000e+02 8.980000000000000000e+02 8.990000000000000000e+02 9.000000000000000000e+02 9.010000000000000000e+02 9.020000000000000000e+02 9.030000000000000000e+02 9.040000000000000000e+02 9.050000000000000000e+02 9.060000000000000000e+02 9.070000000000000000e+02 9.080000000000000000e+02 9.090000000000000000e+02 9.100000000000000000e+02 9.110000000000000000e+02 9.120000000000000000e+02 9.130000000000000000e+02 9.140000000000000000e+02 9.150000000000000000e+02 9.160000000000000000e+02 9.170000000000000000e+02 9.180000000000000000e+02 9.190000000000000000e+02 9.200000000000000000e+02 9.210000000000000000e+02 9.220000000000000000e+02 9.230000000000000000e+02 9.240000000000000000e+02 9.250000000000000000e+02 9.260000000000000000e+02 9.270000000000000000e+02 9.280000000000000000e+02 9.290000000000000000e+02 9.300000000000000000e+02 9.310000000000000000e+02 9.320000000000000000e+02 9.330000000000000000e+02 9.340000000000000000e+02 9.350000000000000000e+02 9.360000000000000000e+02 9.370000000000000000e+02 9.380000000000000000e+02 9.390000000000000000e+02 9.400000000000000000e+02 9.410000000000000000e+02 9.420000000000000000e+02 9.430000000000000000e+02 9.440000000000000000e+02 9.450000000000000000e+02 9.460000000000000000e+02 9.470000000000000000e+02 9.480000000000000000e+02 9.490000000000000000e+02 9.500000000000000000e+02 9.510000000000000000e+02 9.520000000000000000e+02 9.530000000000000000e+02 9.540000000000000000e+02 9.550000000000000000e+02 9.560000000000000000e+02 9.570000000000000000e+02 9.580000000000000000e+02 9.590000000000000000e+02 9.600000000000000000e+02 9.610000000000000000e+02 9.620000000000000000e+02 9.630000000000000000e+02 9.640000000000000000e+02 9.650000000000000000e+02 9.660000000000000000e+02 9.670000000000000000e+02 9.680000000000000000e+02 9.690000000000000000e+02 9.700000000000000000e+02 9.710000000000000000e+02 9.720000000000000000e+02 9.730000000000000000e+02 9.740000000000000000e+02 9.750000000000000000e+02 9.760000000000000000e+02 9.770000000000000000e+02 9.780000000000000000e+02 9.790000000000000000e+02 9.800000000000000000e+02 9.810000000000000000e+02 9.820000000000000000e+02 9.830000000000000000e+02 9.840000000000000000e+02 9.850000000000000000e+02 9.860000000000000000e+02 9.870000000000000000e+02 9.880000000000000000e+02 9.890000000000000000e+02 9.900000000000000000e+02 9.910000000000000000e+02 9.920000000000000000e+02 9.930000000000000000e+02 9.940000000000000000e+02 9.950000000000000000e+02 9.960000000000000000e+02 9.970000000000000000e+02 9.980000000000000000e+02 9.990000000000000000e+02
1.000000000000000021e-02 1.000000000000000021e-02 1.000000000000000021e-02 1.000000000000000021e-02 1.000000000000000021e-02 1.000000000000000021e-02 1.000000000000000021e-02 1.000000000000000021e-02 1.000000000000000021e-02 1.000000000000000021e-02 1.000000000000000021e-02 1.000000000000000021e-02 1.000000000000000021e-02 1.000000000000000021e-02 1.000000000000000021e-02 1.000000000000000021e-02 1.000000000000000021e-02 1.000000000000000021e-02 1.000000000000000021e-02 1.000000000000000021e-02 1.000000000000000021e-02 1.000000000000000021e-02 1.000000000000000021e-02 1.000000000000000021e-02 1.000000000000000021e-02 1.000000000000000021e-02 1.000000000000000021e-02 1.000000000000000021e-02 1.000000000000000021e-02 1.000000000000000021e-02 1.000000000000000021e-02 1.000000000000000021e-02 1.000000000000000021e-02 1.000000000000000021e-02 1.000000000000000021e-02 1.000000000000000021e-02 1.000000000000000021e-02 1.000000000000000021e-02 1.000000000000000021e-02 1.000000000000000021e-02 1.000000000000000021e-02 1.000000000000000021e-02 1.000000000000000021e-02 1.000000000000000021e-02 1.000000000000000021e-02 1.000000000000000021e-02 1.000000000000000021e-02 1.000000000000000021e-02 1.000000000000000021e-02 1.000000000000000021e-02 1.000000000000000021e-02 1.000000000000000021e-02 1.000000000000000021e-02 1.000000000000000021e-02 1.000000000000000021e-02 1.000000000000000021e-02 1.000000000000000021e-02 1.000000000000000021e-02 1.000000000000000021e-02 1.000000000000000021e-02 1.000000000000000021e-02 1.000000000000000021e-02 1.000000000000000021e-02 1.000000000000000021e-02 1.000000000000000021e-02 1.000000000000000021e-02 1.000000000000000021e-02 1.000000000000000021e-02 1.000000000000000021e-02 1.000000000000000021e-02 1.000000000000000021e-02 1.000000000000000021e-02 1.000000000000000021e-02 1.000000000000000021e-02 1.000000000000000021e-02 1.000000000000000021e-02 1.000000000000000021e-02 1.000000000000000021e-02 1.000000000000000021e-02 1.000000000000000021e-02 1.000000000000000021e-02 1.000000000000000021e-02 1.000000000000000021e-02 1.000000000000000021e-02 1.000000000000000021e-02 1.000000000000000021e-02 1.000000000000000021e-02 1.000000000000000021e-02 1.000000000000000021e-02 1.000000000000000021e-02 1.000000000000000021e-02 1.000000000000000021e-02 1.000000000000000021e-02 1.000000000000000021e-02 1.000000000000000021e-02 1.000000000000000021e-02 1.000000000000000021e-02 1.000000000000000021e-02 1.000000000000000021e-02 1.000000000000000021e-02 1.000000000000000021e-02 1.000000000000000021e-02 1.000000000000000021e-02 1.000000000000000021e-02 1.000000000000000021e-02 1.000000000000000021e-02 1.000000000000000021e-02 1.000000000000000021e-02 1.000000000000000021e-02 1.000000000000000021e-02 1.000000000000000021e-02 1.000000000000000021e-02 1.000000000000000021e-02 1.000000000000000021e-02 1.000000000000000021e-02 1.000000000000000021e-02 1.000000000000000021e-02 1.000000000000000021e-02 1.000000000000000021e-02 1.000000000000000021e-02 1.000000000000000021e-02 1.000000000000000021e-02 1.000000000000000021e-02 1.000000000000000021e-02 1.000000000000000021e-02 1.000000000000000021e-02 1.000000000000000021e-02 1.000000000000000021e-02 1.000000000000000021e-02 1.000000000000000021e-02 1.000000000000000021e-02 1.000000000000000021e-02 1.000000000000000021e-02 1.000000000000000021e-02 1.000000000000000021e-02 1.000000000000000021e-02 1.000000000000000021e-02 1.000000000000000021e-02 1.000000000000000021e-02 1.000000000000000021e-02 1.000000000000000021e-02 1.000000000000000021e-02 1.000000000000000021e-02 1.000000000000000021e-02 1.000000000000000021e-02 1.000000000000000021e-02 1.000000000000000021e-02 1.000000000000000021e-02 1.000000000000000021e-02 1.000000000000000021e-02 1.000000000000000021e-02 1.000000000000000021e-02 1.000000000000000021e-02 1.000000000000000021e-02 1.000000000000000021e-02 1.000000000000000021e-02 1.000000000000000021e-02 1.000000000000000021e-02 1.000000000000000021e-02 1.000000000000000021e-02 1.000000000000000021e-02 1.000000000000000021e-02 1.000000000000000021e-02 1.000000000000000021e-02 1.000000000000000021e-02 1.000000000000000021e-02 1.000000000000000021e-02 1.000000000000000021e-02 1.000000000000000021e-02 1.000000000000000021e-02 1.000000000000000021e-02 1.000000000000000021e-02 1.000000000000000021e-02 1.000000000000000021e-02 1.000000000000000021e-02 1.000000000000000021e-02 1.000000000000000021e-02 1.000000000000000021e-02 1.000000000000000021e-02 1.000000000000000021e-02 1.000000000000000021e-02 1.000000000000000021e-02 1.000000000000000021e-02 1.000000000000000021e-02 1.000000000000000021e-02 1.000000000000000021e-02 1.000000000000000021e-02 1.000000000000000021e-02 1.000000000000000021e-02 1.000000000000000021e-02 1.000000000000000021e-02 1.000000000000000021e-02 1.000000000000000021e-02 1.000000000000000021e-02 1.000000000000000021e-02 1.000000000000000021e-02 1.000000000000000021e-02 1.000000000000000021e-02 1.000000000000000021e-02 1.000000000000000021e-02 1.000000000000000021e-02 1.000000000000000021e-02 1.000000000000000021e-02 1.000000000000000021e-02 1.000000000000000021e-02 1.000000000000000021e-02 1.000000000000000021e-02 1.000000000000000021e-02 1.000000000000000021e-02 1.000000000000000021e-02 1.000000000000000021e-02 1.000000000000000021e-02 1.000000000000000021e-02 1.000000000000000021e-02 1.000000000000000021e-02 1.000000000000000021e-02 1.000000000000000021e-02 1.000000000000000021e-02 1.000000000000000021e-02 1.000000000000000021e-02 1.000000000000000021e-02 1.000000000000000021e-02 1.000000000000000021e-02 1.000000000000000021e-02 1.000000000000000021e-02 1.000000000000000021e-02 1.000000000000000021e-02 1.000000000000000021e-02 1.000000000000000021e-02 1.000000000000000021e-02 1.000000000000000021e-02 1.000000000000000021e-02 1.000000000000000021e-02 1.000000000000000021e-02 1.000000000000000021e-02 1.000000000000000021e-02 1.000000000000000021e-02 1.000000000000000021e-02 1.000000000000000021e-02 1.000000000000000021e-02 1.000000000000000021e-02 1.000000000000000021e-02 1.000000000000000021e-02 1.000000000000000021e-02 1.000000000000000021e-02 1.000000000000000021e-02 1.000000000000000021e-02 1.000000000000000021e-02 1.000000000000000021e-02 1.000000000000000021e-02 1.000000000000000021e-02 1.000000000000000021e-02 1.000000000000000021e-02 1.000000000000000021e-02 1.000000000000000021e-02 1.000000000000000021e-02 1.000000000000000021e-02 1.000000000000000021e-02 1.000000000000000021e-02 1.000000000000000021e-02 1.000000000000000021e-02 1.000000000000000021e-02 1.000000000000000021e-02 1.000000000000000021e-02 1.000000000000000021e-02 1.000000000000000021e-02 1.000000000000000021e-02 1.000000000000000021e-02 1.000000000000000021e-02 1.000000000000000021e-02 1.000000000000000021e-02 1.000000000000000021e-02 1.000000000000000021e-02 1.000000000000000021e-02 1.000000000000000021e-02 1.000000000000000021e-02 1.000000000000000021e-02 1.000000000000000021e-02 1.000000000000000021e-02 1.000000000000000021e-02 1.000000000000000021e-02 1.000000000000000021e-02 1.000000000000000021e-02 1.000000000000000021e-02 1.000000000000000021e-02 1.000000000000000021e-02 1.000000000000000021e-02 1.000000000000000021e-02 1.000000000000000021e-02 1.000000000000000021e-02 1.000000000000000021e-02 1.000000000000000021e-02 1.000000000000000021e-02 1.000000000000000021e-02 1.000000000000000021e-02 1.000000000000000021e-02 1.000000000000000021e-02 1.000000000000000021e-02 1.000000000000000021e-02 1.000000000000000021e-02 1.000000000000000021e-02 1.000000000000000021e-02 1.000000000000000021e-02 1.000000000000000021e-02 1.000000000000000021e-02 1.000000000000000021e-02 1.000000000000000021e-02 1.000000000000000021e-02 1.000000000000000021e-02 1.000000000000000021e-02 1.000000000000000021e-02 1.000000000000000021e-02 1.000000000000000021e-02 1.000000000000000021e-02 1.000000000000000021e-02 1.000000000000000021e-02 1.000000000000000021e-02 1.000000000000000021e-02 1.000000000000000021e-02 1.000000000000000021e-02 1.000000000000000021e-02 1.000000000000000021e-02 1.000000000000000021e-02 1.000000000000000021e-02 1.000000000000000021e-02 1.000000000000000021e-02 1.000000000000000021e-02 1.000000000000000021e-02 1.000000000000000021e-02 1.000000000000000021e-02 1.000000000000000021e-02 1.000000000000000021e-02 1.000000000000000021e-02 1.000000000000000021e-02 1.000000000000000021e-02 1.000000000000000021e-02 1.000000000000000021e-02 1.000000000000000021e-02 1.000000000000000021e-02 1.000000000000000021e-02 1.000000000000000021e-02 1.000000000000000021e-02 1.000000000000000021e-02 1.000000000000000021e-02 1.000000000000000021e-02 1.000000000000000021e-02 1.000000000000000021e-02 1.000000000000000021e-02 1.000000000000000021e-02 1.000000000000000021e-02 1.000000000000000021e-02 1.000000000000000021e-02 1.000000000000000021e-02 1.000000000000000021e-02 1.000000000000000021e-02 1.000000000000000021e-02 1.000000000000000021e-02 1.000000000000000021e-02 1.000000000000000021e-02 1.000000000000000021e-02 1.000000000000000021e-02 1.000000000000000021e-02 1.000000000000000021e-02 1.000000000000000021e-02 1.000000000000000021e-02 1.000000000000000021e-02 1.000000000000000021e-02 1.000000000000000021e-02 1.000000000000000021e-02 1.000000000000000021e-02 1.000000000000000021e-02 1.000000000000000021e-02 1.000000000000000021e-02 1.000000000000000021e-02 1.000000000000000021e-02 1.000000000000000021e-02 1.000000000000000021e-02 1.000000000000000021e-02 1.000000000000000021e-02 1.000000000000000021e-02 1.000000000000000021e-02 1.000000000000000021e-02 1.000000000000000021e-02 1.000000000000000021e-02 1.000000000000000021e-02 1.000000000000000021e-02 1.000000000000000021e-02 1.000000000000000021e-02 1.000000000000000021e-02 1.000000000000000021e-02 1.000000000000000021e-02 1.000000000000000021e-02 1.000000000000000021e-02 1.000000000000000021e-02 1.000000000000000021e-02 1.000000000000000021e-02 1.000000000000000021e-02 1.000000000000000021e-02 1.000000000000000021e-02 1.000000000000000021e-02 1.000000000000000021e-02 1.000000000000000021e-02 1.000000000000000021e-02 1.000000000000000021e-02 1.000000000000000021e-02 1.000000000000000021e-02 1.000000000000000021e-02 1.000000000000000021e-02 1.000000000000000021e-02 1.000000000000000021e-02 1.000000000000000021e-02 1.000000000000000021e-02 1.000000000000000021e-02 1.000000000000000021e-02 1.000000000000000021e-02 1.000000000000000021e-02 1.000000000000000021e-02 1.000000000000000021e-02 1.000000000000000021e-02 1.000000000000000021e-02 1.000000000000000021e-02 1.000000000000000021e-02 1.000000000000000021e-02 1.000000000000000021e-02 1.000000000000000021e-02 1.000000000000000021e-02 1.000000000000000021e-02 1.000000000000000021e-02 1.000000000000000021e-02 1.000000000000000021e-02 1.000000000000000021e-02 1.000000000000000021e-02 1.000000000000000021e-02 1.000000000000000021e-02 1.000000000000000021e-02 1.000000000000000021e-02 1.000000000000000021e-02 1.000000000000000021e-02 1.000000000000000021e-02 1.000000000000000021e-02 1.000000000000000021e-02 1.000000000000000021e-02 1.000000000000000021e-02 1.000000000000000021e-02 1.000000000000000021e-02 1.000000000000000021e-02 1.000000000000000021e-02 1.000000000000000021e-02 1.000000000000000021e-02 1.000000000000000021e-02 1.000000000000000021e-02 1.000000000000000021e-02 1.000000000000000021e-02 1.000000000000000021e-02 1.000000000000000021e-02 1.000000000000000021e-02 1.000000000000000021e-02 1.000000000000000021e-02 1.000000000000000021e-02 1.000000000000000021e-02 1.000000000000000021e-02 1.000000000000000021e-02 1.000000000000000021e-02 1.000000000000000021e-02 1.000000000000000021e-02 1.000000000000000021e-02 1.000000000000000021e-02 1.000000000000000021e-02 1.000000000000000021e-02 1.000000000000000021e-02 1.000000000000000021e-02 1.000000000000000021e-02 1.000000000000000021e-02 1.000000000000000021e-02 1.000000000000000021e-02 1.000000000000000021e-02 1.000000000000000021e-02 1.000000000000000021e-02 1.000000000000000021e-02 1.000000000000000021e-02 1.000000000000000021e-02 1.000000000000000021e-02 1.000000000000000021e-02 1.000000000000000021e-02 1.000000000000000021e-02 1.000000000000000021e-02 1.000000000000000021e-02 1.000000000000000021e-02 1.000000000000000021e-02 1.000000000000000021e-02 1.000000000000000021e-02 1.000000000000000021e-02 1.000000000000000021e-02 1.000000000000000021e-02 1.000000000000000021e-02 1.000000000000000021e-02 1.000000000000000021e-02 1.000000000000000021e-02 1.000000000000000021e-02 1.000000000000000021e-02 1.000000000000000021e-02 1.000000000000000021e-02 1.000000000000000021e-02 1.000000000000000021e-02 1.000000000000000021e-02 1.000000000000000021e-02 1.000000000000000021e-02 1.000000000000000021e-02 1.000000000000000021e-02 1.000000000000000021e-02 1.000000000000000021e-02 1.000000000000000021e-02 1.000000000000000021e-02 1.000000000000000021e-02 1.000000000000000021e-02 1.000000000000000021e-02 1.000000000000000021e-02 1.000000000000000021e-02 1.000000000000000021e-02 1.000000000000000021e-02 1.000000000000000021e-02 1.000000000000000021e-02 1.000000000000000021e-02 1.000000000000000021e-02 1.000000000000000021e-02 1.000000000000000021e-02 1.000000000000000021e-02 1.000000000000000021e-02 1.000000000000000021e-02 1.000000000000000021e-02 1.000000000000000021e-02 1.000000000000000021e-02 1.000000000000000021e-02 1.000000000000000021e-02 1.000000000000000021e-02 1.000000000000000021e-02 1.000000000000000021e-02 1.000000000000000021e-02 1.000000000000000021e-02 1.000000000000000021e-02 1.000000000000000021e-02 1.000000000000000021e-02 1.000000000000000021e-02 1.000000000000000021e-02 1.000000000000000021e-02 1.000000000000000021e-02 1.000000000000000021e-02 1.000000000000000021e-02 1.000000000000000021e-02 1.000000000000000021e-02 1.000000000000000021e-02 1.000000000000000021e-02 1.000000000000000021e-02 1.000000000000000021e-02 1.000000000000000021e-02 1.000000000000000021e-02 1.000000000000000021e-02 1.000000000000000021e-02 1.000000000000000021e-02 1.000000000000000021e-02 1.000000000000000021e-02 1.000000000000000021e-02 1.000000000000000021e-02 1.000000000000000021e-02 1.000000000000000021e-02 1.000000000000000021e-02 1.000000000000000021e-02 1.000000000000000021e-02 1.000000000000000021e-02 1.000000000000000021e-02 1.000000000000000021e-02 1.000000000000000021e-02 1.000000000000000021e-02 1.000000000000000021e-02 1.000000000000000021e-02 1.000000000000000021e-02 1.000000000000000021e-02 1.000000000000000021e-02 1.000000000000000021e-02 1.000000000000000021e-02 1.000000000000000021e-02 1.000000000000000021e-02 1.000000000000000021e-02 1.000000000000000021e-02 1.000000000000000021e-02 1.000000000000000021e-02 1.000000000000000021e-02 1.000000000000000021e-02 1.000000000000000021e-02 1.000000000000000021e-02 1.000000000000000021e-02 1.000000000000000021e-02 1.000000000000000021e-02 1.000000000000000021e-02 1.000000000000000021e-02 1.000000000000000021e-02 1.000000000000000021e-02 1.000000000000000021e-02 1.000000000000000021e-02 1.000000000000000021e-02 1.000000000000000021e-02 1.000000000000000021e-02 1.000000000000000021e-02 1.000000000000000021e-02 1.000000000000000021e-02 1.000000000000000021e-02 1.000000000000000021e-02 1.000000000000000021e-02 1.000000000000000021e-02 1.000000000000000021e-02 1.000000000000000021e-02 1.000000000000000021e-02 1.000000000000000021e-02 1.000000000000000021e-02 1.000000000000000021e-02 1.000000000000000021e-02 1.000000000000000021e-02 1.000000000000000021e-02 1.000000000000000021e-02 1.000000000000000021e-02 1.000000000000000021e-02 1.000000000000000021e-02 1.000000000000000021e-02 1.000000000000000021e-02 1.000000000000000021e-02 1.000000000000000021e-02 1.000000000000000021e-02 1.000000000000000021e-02 1.000000000000000021e-02 1.000000000000000021e-02 1.000000000000000021e-02 1.000000000000000021e-02 1.000000000000000021e-02 1.000000000000000021e-02 1.000000000000000021e-02 1.000000000000000021e-02 1.000000000000000021e-02 1.000000000000000021e-02 1.000000000000000021e-02 1.000000000000000021e-02 1.000000000000000021e-02 1.000000000000000021e-02 1.000000000000000021e-02 1.000000000000000021e-02 1.000000000000000021e-02 1.000000000000000021e-02 1.000000000000000021e-02 1.000000000000000021e-02 1.000000000000000021e-02 1.000000000000000021e-02 1.000000000000000021e-02 1.000000000000000021e-02 1.000000000000000021e-02 1.000000000000000021e-02 1.000000000000000021e-02 1.000000000000000021e-02 1.000000000000000021e-02 1.000000000000000021e-02 1.000000000000000021e-02 1.000000000000000021e-02 1.000000000000000021e-02 1.000000000000000021e-02 1.000000000000000021e-02 1.000000000000000021e-02 1.000000000000000021e-02 1.000000000000000021e-02 1.000000000000000021e-02 1.000000000000000021e-02 1.000000000000000021e-02 1.000000000000000021e-02 1.000000000000000021e-02 1.000000000000000021e-02 1.000000000000000021e-02 1.000000000000000021e-02 1.000000000000000021e-02 1.000000000000000021e-02 1.000000000000000021e-02 1.000000000000000021e-02 1.000000000000000021e-02 1.000000000000000021e-02 1.000000000000000021e-02 1.000000000000000021e-02 1.000000000000000021e-02 1.000000000000000021e-02 1.000000000000000021e-02 1.000000000000000021e-02 1.000000000000000021e-02 1.000000000000000021e-02 1.000000000000000021e-02 1.000000000000000021e-02 1.000000000000000021e-02 1.000000000000000021e-02 1.000000000000000021e-02 1.000000000000000021e-02 1.000000000000000021e-02 1.000000000000000021e-02 1.000000000000000021e-02 1.000000000000000021e-02 1.000000000000000021e-02 1.000000000000000021e-02 1.000000000000000021e-02 1.000000000000000021e-02 1.000000000000000021e-02 1.000000000000000021e-02 1.000000000000000021e-02 1.000000000000000021e-02 1.000000000000000021e-02 1.000000000000000021e-02 1.000000000000000021e-02 1.000000000000000021e-02 1.000000000000000021e-02 1.000000000000000021e-02 1.000000000000000021e-02 1.000000000000000021e-02 1.000000000000000021e-02 1.000000000000000021e-02 1.000000000000000021e-02 1.000000000000000021e-02 1.000000000000000021e-02 1.000000000000000021e-02 1.000000000000000021e-02 1.000000000000000021e-02 1.000000000000000021e-02 1.000000000000000021e-02 1.000000000000000021e-02 1.000000000000000021e-02 1.000000000000000021e-02 1.000000000000000021e-02 1.000000000000000021e-02 1.000000000000000021e-02 1.000000000000000021e-02 1.000000000000000021e-02 1.000000000000000021e-02 1.000000000000000021e-02 1.000000000000000021e-02 1.000000000000000021e-02 1.000000000000000021e-02 1.000000000000000021e-02 1.000000000000000021e-02 1.000000000000000021e-02 1.000000000000000021e-02 1.000000000000000021e-02 1.000000000000000021e-02 1.000000000000000021e-02 1.000000000000000021e-02 1.000000000000000021e-02 1.000000000000000021e-02 1.000000000000000021e-02 1.000000000000000021e-02 1.000000000000000021e-02 1.000000000000000021e-02 1.000000000000000021e-02 1.000000000000000021e-02 1.000000000000000021e-02 1.000000000000000021e-02 1.000000000000000021e-02 1.000000000000000021e-02 1.000000000000000021e-02 1.000000000000000021e-02 1.000000000000000021e-02 1.000000000000000021e-02 1.000000000000000021e-02 1.000000000000000021e-02 1.000000000000000021e-02 1.000000000000000021e-02 1.000000000000000021e-02 1.000000000000000021e-02 1.000000000000000021e-02 1.000000000000000021e-02 1.000000000000000021e-02 1.000000000000000021e-02 1.000000000000000021e-02 1.000000000000000021e-02 1.000000000000000021e-02 1.000000000000000021e-02 1.000000000000000021e-02 1.000000000000000021e-02 1.000000000000000021e-02 1.000000000000000021e-02 1.000000000000000021e-02 1.000000000000000021e-02 1.000000000000000021e-02 1.000000000000000021e-02 1.000000000000000021e-02 1.000000000000000021e-02 1.000000000000000021e-02 1.000000000000000021e-02 1.000000000000000021e-02 1.000000000000000021e-02 1.000000000000000021e-02 1.000000000000000021e-02 1.000000000000000021e-02 1.000000000000000021e-02 1.000000000000000021e-02 1.000000000000000021e-02 1.000000000000000021e-02 1.000000000000000021e-02 1.000000000000000021e-02 1.000000000000000021e-02 1.000000000000000021e-02 1.000000000000000021e-02 1.000000000000000021e-02 1.000000000000000021e-02 1.000000000000000021e-02 1.000000000000000021e-02 1.000000000000000021e-02 1.000000000000000021e-02 1.000000000000000021e-02 1.000000000000000021e-02 1.000000000000000021e-02 1.000000000000000021e-02 1.000000000000000021e-02 1.000000000000000021e-02 1.000000000000000021e-02 1.000000000000000021e-02 1.000000000000000021e-02 1.000000000000000021e-02 1.000000000000000021e-02 1.000000000000000021e-02 1.000000000000000021e-02 1.000000000000000021e-02 1.000000000000000021e-02 1.000000000000000021e-02 1.000000000000000021e-02 1.000000000000000021e-02 1.000000000000000021e-02 1.000000000000000021e-02 1.000000000000000021e-02 1.000000000000000021e-02 1.000000000000000021e-02 1.000000000000000021e-02 1.000000000000000021e-02 1.000000000000000021e-02 1.000000000000000021e-02 1.000000000000000021e-02 1.000000000000000021e-02 1.000000000000000021e-02 1.000000000000000021e-02 1.000000000000000021e-02 1.000000000000000021e-02 1.000000000000000021e-02 1.000000000000000021e-02 1.000000000000000021e-02 1.000000000000000021e-02 1.000000000000000021e-02 1.000000000000000021e-02 1.000000000000000021e-02 1.000000000000000021e-02 1.000000000000000021e-02 1.000000000000000021e-02 1.000000000000000021e-02 1.000000000000000021e-02 1.000000000000000021e-02 1.000000000000000021e-02 1.000000000000000021e-02 1.000000000000000021e-02 1.000000000000000021e-02 1.000000000000000021e-02 1.000000000000000021e-02 1.000000000000000021e-02 1.000000000000000021e-02 1.000000000000000021e-02 1.000000000000000021e-02 1.000000000000000021e-02 1.000000000000000021e-02 1.000000000000000021e-02 1.000000000000000021e-02 1.000000000000000021e-02 1.000000000000000021e-02 1.000000000000000021e-02 1.000000000000000021e-02 1.000000000000000021e-02 1.000000000000000021e-02 1.000000000000000021e-02 1.000000000000000021e-02 1.000000000000000021e-02 1.000000000000000021e-02 1.000000000000000021e-02 1.000000000000000021e-02 1.000000000000000021e-02 1.000000000000000021e-02 1.000000000000000021e-02 1.000000000000000021e-02 1.000000000000000021e-02 1.000000000000000021e-02 1.000000000000000021e-02 1.000000000000000021e-02 1.000000000000000021e-02 1.000000000000000021e-02 1.000000000000000021e-02 1.000000000000000021e-02 1.000000000000000021e-02 1.000000000000000021e-02 1.000000000000000021e-02 1.000000000000000021e-02 1.000000000000000021e-02 1.000000000000000021e-02 1.000000000000000021e-02 1.000000000000000021e-02 1.000000000000000021e-02 1.000000000000000021e-02 1.000000000000000021e-02 1.000000000000000021e-02 1.000000000000000021e-02 1.000000000000000021e-02 1.000000000000000021e-02 1.000000000000000021e-02 1.000000000000000021e-02 1.000000000000000021e-02 1.000000000000000021e-02 1.000000000000000021e-02 1.000000000000000021e-02 1.000000000000000021e-02 1.000000000000000021e-02 1.000000000000000021e-02 1.000000000000000021e-02 1.000000000000000021e-02 1.000000000000000021e-02 1.000000000000000021e-02 1.000000000000000021e-02 1.000000000000000021e-02 1.000000000000000021e-02 1.000000000000000021e-02 1.000000000000000021e-02 1.000000000000000021e-02 1.000000000000000021e-02 1.000000000000000021e-02 1.000000000000000021e-02 1.000000000000000021e-02 1.000000000000000021e-02 1.000000000000000021e-02 1.000000000000000021e-02 1.000000000000000021e-02 1.000000000000000021e-02 1.000000000000000021e-02 1.000000000000000021e-02 1.000000000000000021e-02 1.000000000000000021e-02 1.000000000000000021e-02 1.000000000000000021e-02 1.000000000000000021e-02 1.000000000000000021e-02 1.000000000000000021e-02 1.000000000000000021e-02 1.000000000000000021e-02 1.000000000000000021e-02 1.000000000000000021e-02 1.000000000000000021e-02 1.000000000000000021e-02 1.000000000000000021e-02 1.000000000000000021e-02 1.000000000000000021e-02 1.000000000000000021e-02 1.000000000000000021e-02 1.000000000000000021e-02 1.000000000000000021e-02 1.000000000000000021e-02 1.000000000000000021e-02 1.000000000000000021e-02 1.000000000000000021e-02 1.000000000000000021e-02 1.000000000000000021e-02 1.000000000000000021e-02 1.000000000000000021e-02 1.000000000000000021e-02 1.000000000000000021e-02 1.000000000000000021e-02 1.000000000000000021e-02 1.000000000000000021e-02 1.000000000000000021e-02 1.000000000000000021e-02 1.000000000000000021e-02 1.000000000000000021e-02 1.000000000000000021e-02 1.000000000000000021e-02 1.000000000000000021e-02 1.000000000000000021e-02 1.000000000000000021e-02 1.000000000000000021e-02 1.000000000000000021e-02 1.000000000000000021e-02 1.000000000000000021e-02 1.000000000000000021e-02 1.000000000000000021e-02 1.000000000000000021e-02 1.000000000000000021e-02 1.000000000000000021e-02 1.000000000000000021e-02 1.000000000000000021e-02 1.000000000000000021e-02 1.000000000000000021e-02 1.000000000000000021e-02 1.000000000000000021e-02 1.000000000000000021e-02 1.000000000000000021e-02 1.000000000000000021e-02 1.000000000000000021e-02 1.000000000000000021e-02 1.000000000000000021e-02 1.000000000000000021e-02
-6.046312223837954636e-02 2.048842814158717385e+00 7.491265454246345823e-02 2.007133811032964232e-01 1.845763061564607010e-01 2.880086718455298622e-01 2.072621795194515837e-01 4.121031994364006690e-01 -1.695960980803814522e+00 -5.603066384759859409e-01 1.914006401834928428e-01 -2.264069637690625747e+00 3.618640094423103415e-01 2.255289100113907486e-01 6.228851927595049354e-01 -8.031002054985761363e-02 1.823350399963195589e-01 5.829782194041694954e-01 -1.703104955080767757e+00 -1.383058263797298792e+00 2.650379227842182051e+00 -5.460576142594342208e-01 1.628026286214053209e-01 -1.888323084958518194e+00 -1.932120967536939959e+00 -3.751923683823645828e-01 4.990442859392982267e-01 -9.338665503046870153e-01 2.133399167749862879e-01 1.320613576512439102e-01 1.028168485598643045e+00 2.856110550670925008e+00 -2.786686321436225855e-01 -3.702660324538037395e-01 -2.735563650548945347e+00 -3.006712671356526756e-01 -9.526886405831096194e-02 -3.790850931203673668e-01 3.194072417695254518e-01 2.220828015144788115e+00 -2.344590018689291233e-01 1.507366538397120759e-01 1.431668222576898852e+00 -5.716675315919321765e-01 1.159751653347738554e+00 1.140892277401227561e+00 -6.877553152587289054e-01 6.639114110912308631e-01 -1.250522959459426930e+00 -7.567350029365146336e-01 -1.451874323034564318e-01 -3.314549222231626402e-01 3.409855594434598181e-01 2.190846887206700580e-02 3.380013301244482599e-02 4.533940817257813005e-02 1.248065204498002290e+00 -2.297333997043514986e-01 -2.142724828650502733e+00 -6.008943494831503473e-01 -3.521081572615236688e-01 -1.937546232361973209e+00 -4.171538307096099629e+00 -3.850557557839487388e-01 2.893361888457628983e-01 -5.295931009874265127e-01 6.210247526382585148e-01 -1.601861223247341148e-01 5.019992971875389953e-01 -1.687586751362073922e+00 -7.707150218908307426e-01 -2.426499534951767068e-01 1.523228994838264350e-01 -2.182891752067580793e+00 -1.591952749002455703e-01 8.797164816239991803e-01 5.092142639402369442e-02 1.679059403623225089e-01 -1.320819788254586624e-01 2.186303172479662216e+00 -6.496383928707089028e-01 1.450915370923888226e+00 4.022750062946474969e+00 2.154791107081659884e+00 -1.040269908554593448e+00 -1.082181829934902639e+00 -3.749841628437869390e-01 4.245720758920773497e-01 7.740258163209948750e-01 6.654216452645285163e-01 -1.831889517789768496e+00 -3.469854343064448510e-01 -1.060748859306051006e-01 -5.439633140362434283e-01 -4.994601742607220340e-01 5.676084956197584297e-02 4.791590107309529611e-01 6.692203604563871921e-02 8.429606886051668746e-02 1.311237622455541985e+00 -4.940319250482337332e-01 -2.357051389451894283e-02 9.818076895260893222e-01 -8.014465174916927115e-01 -1.388706379655300568e-02 -2.338927370429819685e+00 2.221602914693570630e-01 -9.991911335582321918e-01 2.006568774542425437e-01 -6.628595117996610719e-01 4.450157350958280911e-02 5.317796420871858665e-01 -1.581884670935038484e+00 3.140339888237372867e-01 -6.605890516207086893e-01 1.693832477617230658e+00 -2.449964837620399738e+00 -8.987242604333195439e-01 6.151714245104328294e-01 -6.074909857508530298e-01 -2.382501205965029012e+00 -1.588514587153393887e+00 4.072110877858798328e-01 -4.989626756035289712e-01 1.989193725182326900e-02 -3.678586155393629431e-01 2.215870289905259582e+00 -2.900582433346711841e+00 3.031083667264467540e-01 4.559448235973894703e-01 1.696771058843663804e-01 7.236117193794157076e-01 -8.417521739995391383e-02 3.766037965093078227e-02 -4.043087202915706668e-01 -1.692954925409217992e-01 -1.215312026157903347e+00 1.188748352534080732e+00 6.393663867609264972e-01 -1.440232946379449985e-01 -2.353146677706652590e-01 5.344300625057817333e-01 -2.606054205966133797e+00 2.261671821771857604e-01 2.213295481024064315e-01 1.568433845176801400e+00 -1.344310363978369893e-01 -4.970381232488261802e-01 9.920640434153603360e-03 -2.512695381099954162e-01 -9.543039403312190139e-01 1.679844811579609409e+00 5.079423553648668155e-04 1.913298718295549927e-01 -1.216007654709906072e-01 1.724454482806959454e+00 -4.187151319122517923e-01 4.711109092489720873e-02 5.203237728883191027e-01 9.154783031671324123e-01 -3.868921991038031805e-01 -6.225077620722891947e-01 -1.871774522089624027e+00 8.053723661613879647e-01 4.943269187329789316e-02 1.294005887193384163e+00 -5.886526413890924569e-01 -1.404949585162948954e-02 -6.120201105308679945e-02 1.525530085957360615e+00 -7.561672041100697683e-01 4.327011319690481916e-01 6.982826601842099246e-01 -2.060188955851214310e+00 2.070923650861473952e-02 -2.669734517654857697e+00 5.043750805373123924e-01 2.328027127397768847e+00 7.835541304299531440e-01 -5.318776054041919332e-01 1.261662520946268407e+00 -5.732299694267088963e-01 -4.817071415910652576e-01 2.286384923338346808e-01 2.132822047070634053e+00 -2.127541775991463602e-01 -2.358537960380094334e-01 -5.855430141040524061e-01 -2.527179526862319836e-01 -4.648240605646153378e-01 -8.852913308418326466e-01 4.625467818132823483e-01 2.494244300495643274e-01 9.766772789474138516e-01 2.559136912776284190e-01 -1.884966363046853277e-01 -3.274955615942308773e-01 -1.948936580641427718e-01 -2.109321416282433914e-01 -2.448336587976811973e+00 1.697945463132169541e+00 6.489806225715242238e-01 -1.227975472752144276e-01 1.131420034261514385e+00 3.208524655803533798e-02 -5.835870831619547339e-01 1.534754928913240279e+00 -1.149645703278865838e+00 -7.397644101782283044e-02 -1.450007412659661266e-01 3.648676971608377784e-01 1.652024028281009027e+00 7.796098781222337015e-01 2.655909329429083365e-02 -1.946465470691481681e+00 -3.288942095302812008e-01 -3.611959792648009038e-01 -8.087767148540708773e-01 1.038817918471280244e+00 1.440045337044626228e+00 1.490886403275076377e+00 4.566715141618791773e-01 -2.146519502069546281e-01 -1.951591875512788954e-01 7.285873455912936780e-01 9.842171714050217401e-01 4.271181453091980051e-01 -8.392737937614344057e-01 -3.985826468133060185e-01 5.297065004028664870e-01 -9.868150720636221784e-01 -2.026299978341762342e-01 3.729327555214229317e+00 -1.476067862022061083e+00 5.376483717303377485e-01 -6.296534357146397198e-01 7.587113389620152581e-01 -4.662575385255010030e-01 -7.654037656456940120e-01 7.852480919964748007e-02 -7.373056365876279328e-02 4.089537722739624570e-01 1.108538348053924039e-01 1.306722727729553002e+00 2.660731359735696300e-01 9.151835044636805749e-01 2.739521737094400278e-01 -5.338968401939559350e+00 -5.683427591966381254e-01 -2.239373927618225693e-02 -1.333475788610268387e+00 1.206803181116028023e+00 6.038618221574849204e-02 1.211275361244323223e+00 2.349570750876622260e-01 6.277452110017632814e-01 -4.474830983048355137e-01 -6.460708736227542826e-01 -8.412559705611565714e-03 3.360160126927005941e-01 3.273274664888032315e-01 3.346078532086941837e-01 1.257993400445931886e+00 2.725660082979409760e-01 1.142752202791559535e+00 -8.544595105938316282e-01 5.883961687459138279e-01 6.165047824825586886e-01 7.004138874919283442e-01 -2.326879355384556536e-01 -1.795261770213583616e-02 2.772858773768626869e-03 1.710935720028202434e-01 -7.941231110814236938e-02 -3.764442177693440028e-01 -2.434411568002138038e-01 4.109728748647268892e-01 -3.799836598698989598e-01 -3.423546962276371314e-02 -1.333675573237857570e+00 2.474074996565346629e-01 -5.913663281080242529e-01 5.486083730190098873e-01 1.242980768028221494e-01 -1.236206729028371143e+00 -7.097786043618785623e-01 6.027975327583292575e-01 1.730113054349932955e-01 -5.657263674836496836e-01 5.404466122290454422e-01 9.773720907965232074e-01 -3.141167565553886210e-01 5.005283799075858076e-01 9.917049928202463782e-01 1.682817355155529632e-02 1.447499612665563262e+00 3.424818621413087266e-03 -7.858275025434380279e-02 -3.712440687142393170e-01 5.344498310520474915e-02 -7.021253290946725123e-01 -2.752156137880277798e-01 1.936035772476172534e+00 6.905704268202631502e-01 1.359358230550745894e+00 -6.819105486738649136e-01 -7.483402106474998927e-01 4.933521492511892537e-01 1.877258965552361103e-01 -2.771812388909569602e+00 1.424290021351710678e+00 -7.711764420007406751e-03 1.197771877037794752e+00 -6.680154308827696008e-02 -1.344152412750432291e-01 6.873226822343844189e-01 5.803705416814265439e-01 5.316519174591627372e-01 2.809600313016836215e-01 -3.501287664364209462e+00 4.481799215754833088e-01 1.428886166243743261e-01 -2.929204054177081962e-01 -6.210036781854762905e-02 7.540815389160014925e-01 -4.071697073736025851e-01 2.056095597648775808e+00 2.974749156182768250e-01 2.206259887904319372e-01 -1.746826972925085153e-01 3.627381075280026179e-01 -2.608782076686712692e+00 9.965729369687033046e-01 -8.787204449395488171e-01 -1.723854739923231238e-01 -9.620564499304055106e-01 7.612509060157081342e-02 -1.539452371590160906e+00 -1.508957997195053746e+00 1.595970162718748919e-01 -5.255395865790615101e-02 -2.401108922053833000e-02 -1.309574610620393154e-01 -1.096276379094462294e+00 -5.963393286484769407e-01 8.207286502187145505e-01 1.187777645226125944e+00 1.479049229836055801e+00 -6.527978828216304819e-02 4.836527706145639094e-01 6.117797704576106305e-02 6.852140499055766609e-01 -4.626665709295943452e-02 -2.234560902701194340e+00 -1.193269794949105567e+00 1.901542168726037652e+00 5.248195674071886030e-01 -1.462915706431657359e+00 -6.560200132676542450e-01 -1.515134887118482432e+00 -9.892607876081731255e-02 9.634500978414781702e-01 -5.460461783140262426e-01 -3.173851810938506546e+00 4.442464514273126719e-01 1.401411768275013570e+00 -3.493169139242799925e-01 -4.227563005427437126e-01 -5.393362291836283073e-02 1.638745914158115310e-02 -1.171466777457401132e-01 -1.697556513411393742e-01 -4.933379049570079528e-02 -2.281017049621344994e-01 -2.605388375174095827e-01 -5.147640544236796734e-01 -8.411923078399736742e-01 1.920054968477485691e+00 -4.408847358997117216e-01 9.921329950141537513e-01 5.752361603692777159e-01 -5.565316436439551318e-01 -1.673992932313736359e+00 -3.800053189715735247e-02 -5.300951259305519692e-01 -7.884383021974443462e-02 5.692268319197495152e-02 -5.033403650974646037e-01 -5.971119799655536520e-01 6.178495119711810979e-01 4.558641220651782344e-01 -2.672096822667836769e+00 -1.267212032477979200e+00 2.065277191903887033e-01 7.982336587575352693e-01 1.154839938490063028e-01 -7.971816379662182150e-01 -1.296518296183350127e+00 1.227798378507386490e+00 2.825630437555102681e+00 -2.645094363939401449e-02 1.040933942249582689e+00 1.226088795069181503e-01 8.483034952393337935e-01 1.248506860444260402e+00 -5.332960353477192994e-01 6.769148783853407014e-01 1.869935267288857172e+00 -1.570178771868520340e-01 5.813308103008663769e-03 1.039011915894021643e+00 7.950145556060193019e-01 1.010495182427010530e+00 -4.426839740467544138e-01 -6.952267994438111609e-01 -2.265571900378096970e+00 1.097263704757787783e+00 1.067927282601526529e-01 9.880067477193548164e-01 4.266884908337275073e-01 3.403078691527264832e-01 1.819309676435000522e+00 -2.515303580288073548e-01 -2.153939359322482872e-01 -5.541043416680890843e-01 -1.497330898569196656e+00 -4.465101672342203787e-01 3.180037308490917258e+00 -9.752804135690448795e-03 1.754631998050773412e+00 -1.363529881466174265e+00 1.773587087058036693e-01 -4.312611857507853697e-01 5.566898827082482626e-01 1.016760962783548328e+00 -4.559093219657937013e-01 -2.161218841038636262e-01 1.432164706652774011e-01 4.323521197520653614e-02 2.332641648130447276e+00 -4.391268731584881402e-01 -1.804310314695282136e-01 1.634412912957566633e+00 7.653542094104978100e-01 -6.277142340562619216e-01 9.011974856956271873e-01 5.160204039050529934e-01 5.460523439256630418e-01 -6.565256768417924160e-01 1.035282937446045486e-02 2.198784451839011500e-01 -2.058382811615629748e+00 5.321173928005519249e-01 3.980261748058377264e-02 -4.532613088087804332e-02 -7.757791984444768474e-01 -9.624977035292893446e-02 -5.514689716967863253e-01 9.343820666934844477e-01 -3.265312568336140586e-01 7.438611673181320105e-01 9.622423851504717796e-01 3.392950140056461561e-01 -2.350091407093958473e+00 -1.120131090058335888e+00 9.079672851650726351e-01 -1.521398803111560172e+00 1.409148643629144493e+00 -5.456840021546767172e-01 2.963188762401791077e-01 1.384517203846794331e+00 -2.596103392499722884e-01 3.423757076141150657e-01 -1.092786160804219753e+00 1.467054491817036732e+00 -1.465233098179139049e+00 5.988652985031661657e-01 -1.448414868370131892e+00 3.053553909397938027e-02 1.556080069569507396e+00 5.683893118796394806e-01 -8.915127917579217520e-01 1.643643975292417903e+00 6.672223500291184495e-01 -2.140201602147792315e+00 2.262023306169422820e+00 1.048665144047645326e+00 1.652592256448145003e+00 -2.624861865270543770e+00 -6.365074200104118285e-01 -9.259929132425949172e-01 2.222525534909448042e-01 7.027961649658989174e-01 -2.982511529035917000e-02 -4.057340761931517714e-01 1.183632835646766246e+00 -3.160401780829589780e-01 1.960010943070426281e-01 -2.495998360703902408e-01 2.633669977568270149e+00 3.888400008890878223e-01 4.755765297152403370e-01 9.352575529929831877e-01 -5.694906223336841933e-01 -1.289639564288707518e+00 -8.933167981547604497e-02 7.089917958811691179e-01 -8.029292593211299067e-01 -7.106293081075272869e-03 1.088239728766431380e+00 -5.427478154273107647e-02 -1.190225476845732988e+00 1.680833191587444431e-01 -2.097528144920166870e-01 -5.521869104184107258e-01 -6.248957130874032151e-01 6.810957673706564686e-01 -2.143664961008077130e-01 -1.977413589334877098e-01 6.426604406600024966e-01 -2.929031222257731382e-01 3.358052445513639017e-01 2.346225082198646894e-01 -1.072687618259801912e-01 3.766978118903337169e-02 -2.798929149835360231e-01 5.190394140829756031e-01 1.965739950165690253e-01 -2.737392641794252762e-02 2.240380194250215229e-01 4.370142491216464364e-01 -3.521420205879502441e-01 -7.953589303538655120e-01 -9.210016412730469559e-01 4.905719074558846926e-01 9.006161604514947849e-02 -3.382699556281361375e-02 -2.539235881347716717e+00 -5.579984108171310853e-01 -1.522382860416625350e-01 4.521873245762442761e-01 -4.838016563734023334e-01 1.657074475771557198e+00 -5.233894185437349966e-01 -9.336401583954658800e-01 -3.984360585438450064e-01 3.320350354466843068e-02 -8.590705643043454465e-02 -1.141358386481010345e-02 -7.755055106733949044e-01 1.681428692253226775e-01 -6.696502250097824405e-03 7.191858473327987500e-02 2.030799134569684083e-01 -7.760818175271665398e-01 -4.620366038095284345e-01 -3.199010387759484431e-01 3.126553014504175554e+00 7.956978235302644142e-01 3.379516408227782320e-01 -1.572733972602202934e+00 -1.812470933942844087e-01 9.847144059198239541e-01 -1.661524207316567026e+00 -4.793516381511455648e-01 -4.269622693105395994e-01 -2.884491977491657977e+00 4.302102596822909852e-01 2.711210451761337722e-02 4.189394842305216304e-01 -5.332224427633386332e-01 2.578814646472365468e-01 2.825896041054837937e+00 3.095433534296036626e+00 3.560706090046241723e-01 -1.677384655343245434e+00 1.681432187187515970e+00 1.478874465807291649e+00 5.089614054053277492e-01 4.080153364693539508e-01 -4.869865458576905920e-02 -2.210190802620337625e-01 4.399421285030425954e-01 1.425019702954861689e+00 2.676817156424029370e-02 -8.280687733786377125e-01 -1.523636689771880270e+00 2.249463030857936363e-01 -1.649491079367892132e-01 -5.366359364332922571e-03 1.884141295160840154e-02 -2.734457133784043426e-01 2.050106847417325184e+00 -1.284459964357270945e+00 9.361725691766766833e-01 4.170391408001473676e-01 -3.325944046386572484e-01 1.422631317296873865e+00 5.384622197729925785e-01 4.237235926581029988e-01 -2.702080112724113636e+00 -2.549287524868522059e-01 3.485399939292730398e+00 -1.192206907900986435e-01 -6.003325967915106309e-01 -2.244106170379526421e+00 5.938747074975050388e-01 -4.083726032237470216e-01 -4.437337450909366321e-02 -1.562621159672696214e+00 9.480725897987011264e-01 4.438811062887635939e-01 -1.958057326941855802e-01 -1.271285441693277007e-01 9.037678242588307320e-01 -1.992624680983857699e+00 4.787587376926783489e-01 8.189495123295990053e-01 1.564414025685369747e-01 5.123492854749193970e-02 2.909181421745538065e-01 3.108092860449373496e-01 -1.212560111260890583e+00 -7.415586508649830710e-01 5.621604674125836587e-02 -7.185431201751811825e-01 -2.087444232208680805e+00 -6.625989675535715051e-02 1.821665324151244603e+00 9.112508873654576735e-01 -3.365469709844066126e-01 7.425382535288832520e-01 -1.294359655811476495e+00 -1.552439045604480983e+00 -5.082872123206099574e-02 -2.840552598390873595e-01 -3.133636429709729665e-02 4.056467716065939588e-01 -7.680188336301237984e-01 -1.057888726137833774e-01 5.321665970560438552e-01 -1.957800207017828253e-01 4.029776981672460456e-01 8.705924952897301505e-01 -1.852051524379652703e+00 -1.554660350345587139e+00 6.116614528850853327e-01 8.127341372791985208e-01 -8.135605184671962364e-01 5.479239956950050505e-01 -5.005455438825728159e-03 3.084854222908468557e-01 -2.789878019550850463e-01 1.411032780456462632e-01 2.697548164052988584e-01 2.080444414287153099e-01 1.117260407076005047e+00 -6.855959329532600455e-01 -1.768690511864951853e+00 -3.067647693101914763e-01 1.743754301337246293e+00 7.618271278231261157e-01 7.261989255027506696e-01 -5.576885687975683403e-01 -3.793390032115977473e-01 3.786559041864426822e-01 -1.756782317004306870e+00 -2.991341965276030357e-01 -1.045965330116927827e+00 -3.083166008869218100e-01 8.397550274107438151e-01 -4.915519567614962670e-01 -1.074103874120406477e-01 7.305771560070457582e-01 3.241066361599502788e-01 2.574628191975957936e+00 7.087163029863915442e-01 3.065652817089095650e-01 2.896872079600490979e-01 -2.608140699527602621e-02 1.511517202145417960e+00 -7.785608999044463241e-02 2.553614023914468678e+00 -2.185904748601873449e-01 -1.997464909168291114e-01 1.402125092936496419e-02 1.228088922291619811e+00 -1.239904389513093452e+00 -8.210086212310515608e-01 -8.792566490895297182e-01 -2.035583585479866287e+00 8.008726108774066876e-01 7.523352522108707197e-01 -1.814397841936795430e+00 6.235021129200772894e-01 -7.491904879834591080e-01 -5.627212488493907872e-01 -2.046255318807164159e-01 1.109947089077981675e+00 -1.084656773409759190e+00 5.577078548148807213e-01 -5.103944506801748604e-01 1.054960077460894485e+00 -1.223353370626020675e+00 4.522321341806691541e-01 -3.437850491934079655e-01 1.999795661753095422e-01 -1.652092268311531331e-01 -3.825863125511141383e-01 -1.543742867763509219e+00 -1.296118243645010271e+00 -7.656585696588297241e-01 -3.693753248357805052e-01 1.998812318281576461e-01 -6.376680627654153499e-04 -4.097077737777501949e-01 -3.834494685621045451e-02 3.803692295935532375e-01 -8.303687237449512010e-03 5.762106033720859610e-01 9.721643286964499753e-01 1.885853576043857949e+00 -1.624108524315967250e-01 3.250606432886892216e-01 -1.236826763714038657e+00 -1.736152734195242520e+00 -2.079887268154890362e-02 2.555145414776675006e-01 1.747806679407271302e+00 -2.691897580888416575e-01 8.736669503197916908e-01 3.722448068801786913e-01 9.951918864797922037e-02 -9.337066174778931860e-01 4.151627255667732497e-01 4.880097263406719676e-01 3.120804143315630275e-01 -4.259351602875476317e-01 -4.744657743000745831e-01 -4.083938522148695682e-01 4.516758311357977340e-01 -5.154362834068576538e-01 -4.137577590625670099e-01 -2.193813195284257389e-01 1.794572309171169389e+00 3.172798140810160761e-01 -4.652707647406423841e-01 -9.823926010052865809e-01 -8.127580360321094988e-01 2.068179981804695089e+00 -1.892549330985448419e+00 1.048784417458080709e+00 3.283615350087652485e-01 -9.814502919764736544e-02 -2.797590510871180491e+00 -2.512907307956032010e+00 1.307156203805099615e-01 1.548155148155139216e-01 7.058518893071477063e-01 1.602743482985840573e-01 5.102474946640062070e-01 -1.084439257839757281e-01 2.428179765083067834e-02 -9.774166375721223821e-01 -4.291886476561791453e-01 5.749146627770175544e-02 -2.019727445736530236e-01 1.673871521462339806e-01 7.696215305813868257e-01 1.196675406733850755e+00 9.194935985409066204e-01 -2.747892624187043609e+00 3.016397068311415519e-01 1.725338073262125294e+00 2.631327773858687102e-01 2.223164916106064037e+00 1.305917877500176738e+00 -3.048584839254595003e-01 2.663380318380708101e-01 -1.211979458373710211e-01 -1.341086833189804262e+00 -7.627297324547124835e-02 -3.094736848477154245e-01 4.503043082832655641e-01 5.858772367365038258e-01 1.519621966594722207e-01 2.000398790037238306e-01 -4.728993920712293297e-01 2.366048954255955294e+00 6.319718790764563554e-01 2.141334104444389208e+00 2.171128210722009233e-01 6.456180868411697249e-01 -3.433072322161349610e-01 4.650183704063220458e-01 -2.111046482935002633e+00 -3.682193102826320508e-01 6.717350516634400526e-01 9.991853103335093800e-02 -7.701578887623904413e-01 6.287346736143499815e-01 -7.578951535811000451e-01 1.098007927858792587e-01 -2.433454191212095219e-01 -1.205411279035136340e+00 1.120660854501087211e+00 -6.703906304768827429e-01 3.069724742587002453e+00 -1.348883131141799530e-01 1.135290310864168317e+00 1.388620493416406143e+00 -5.111024979566565207e-01 3.366970874425926574e+00 -6.021769603277353777e-01 -2.902650642956832727e-01 5.131669506064705510e-01 -9.151452239943344003e-01 -6.274614789634511691e-01 -1.108182425085127987e-01 2.439013082676494415e-01 1.855409828201537437e+00 -3.997329628620673314e-01 3.789744721932372662e-01 4.279308212315124926e-02 -5.063651581540177249e-01 1.576072132906927437e-01 1.578994914465294164e+00 1.922539757989017550e+00 -3.912813263779141848e-01 5.586190846973186908e-01 2.337101993693158908e-01 -2.679244469789420879e+00 -3.001694782111415383e-01 -3.210995439044605493e-01 -1.892900075558333617e-01 -4.976175722276652835e-01 8.805012992544163364e-01 3.097079451665761818e-01 -7.114740922708358006e-01 -6.239080251516607722e-01 -1.588690804437979054e+00 2.062029445257261007e-01 7.486347320976430852e-01 -9.121061513578696545e-01 1.049858413883846042e+00 -1.514137172897697337e+00 -7.400281439849210052e-01 5.735451489190280805e-01 -2.641215089664221694e-01 8.658383757201264519e-01 -6.761735899082882417e-03 -3.569454745649905392e-01 -1.302537948394189682e+00 -6.538728046396815596e-01 7.972965518704178134e-01 1.668618646449723242e+00 6.804223670868074780e-01 2.207397635874434716e+00 -1.696285162617094944e+00 -2.309973863019290086e+00 -1.201605745599455322e+00 -2.562941556792716624e-01 9.539486145605589051e-01 1.842472045633485600e-01 7.799181020216302551e-01 2.193678196311352302e+00 3.856082778611376050e-01 7.284519833615768492e-02 -7.289214735657798538e-01 7.446485870341488233e-01 -3.313613115621041882e-02 -9.977746757932820509e-01 -3.745308216170161186e-01 2.114346571544868603e+00 -1.252223824459663071e+00 1.030537316333780096e+00 1.269827205862645025e-01 -3.846966354497681206e-01 -3.759981991032650961e-01 5.134706780099478340e-01 -3.871963571158801298e-01 4.757361731821754258e-01 -1.937838672614939250e+00 -2.883240613535039132e-01 7.094724625216785041e-01 8.764160954654796887e-02 1.355837728034533951e+00 1.157832866460518861e+00 -6.552152037312830579e-02 -1.260171142936904465e-01 2.834211006284717005e-01 1.025795098837651409e+00 4.195614084156927825e-01 -1.449081369973213018e-01 -3.279553310826178181e-01 9.529012217951574049e-02 -3.472920110690939088e-01 1.210994691580844773e-01 -4.544714466282827603e-01 4.161256592429799644e-02 -1.504712170015060080e+00 2.236505438563270776e+00 2.440303021357054902e+00 -6.413083491636124567e-01 -2.172749525365519574e+00 1.168948022704132006e+00 7.519491610454404062e-02 -1.504412415820379323e+00 4.479866175794861016e-01 -3.007005009571467546e+00 7.189572928696955634e-01 1.006940842680102283e-01 4.210580780586519745e-01 4.751427087402496641e-01 8.022209304216697534e-01 1.187513019497789646e+00 -1.519098933497344817e+00 8.331916687683982303e-02 -1.594948160376485624e-01 -1.682316374223934430e+00 -1.362863899839948711e+00 -1.957901952175371774e+00 -2.002204215509339580e+00 -6.617828317867346932e-01 -1.438848159846625036e-02 -2.468403363574450393e-01 4.055967755548437026e+00 -1.110139665172134471e+00 -4.914706226545442203e-01 -8.965905681249038972e-01 6.288421333366354116e-01 1.602462026296235464e+00 2.895627306883090113e-01 -8.386903670366299690e-02 1.526310142056790387e+00 -7.498253639798411196e-01 -2.169848709068558923e-01 6.823357260419775638e-01 -1.093282419652240045e-01 1.140762504196115995e-01 1.987979541312445697e-01 -7.629643181212010239e-01 -1.625845291753478250e+00 -4.114500390235827920e-01 -5.438765575450603684e-01 -6.992260568216145111e-02 -4.400392336023426498e-01 3.566782130461998990e-01 -1.220579028728695087e-01 -3.694486336747014321e-01 4.552251850770255848e-01 -7.503635440497560261e-01 7.032134495223265613e-01 1.214686115406201639e+00 -1.292049808977135505e+00 -5.949567170275799066e-01 -3.162622931230706924e-01 -6.075059575993271288e-01 4.341618453812760015e-01 1.111044988822608381e+00 9.924200024425444688e-02 9.469242112204871997e-01 1.024315998640683789e+00 -7.340206380384668439e-01 2.356461766787499579e-01 9.865557491117971090e-01 -4.758986398772638293e-01 -2.535857640689973103e+00 2.524742504115093489e+00 -8.262066463918366077e-02 2.990794057387188953e+00 -1.582084923803502630e+00 -4.779292743543481770e-01 -1.348291322583455409e+00 -4.149780658440951897e-02 -3.306705885490464070e-01 -9.629823080857479178e-01 3.094709357352194989e-01 -1.540037814214714418e+00 9.974331680415238210e-02 -1.804360714930081377e-01 -1.270260054907723368e-01 -1.157185440187360331e-01 1.879634326586291371e-01 2.423888654960945077e-01 1.149005756108227194e+00 -1.596844961768677962e+00 1.319262182903720770e+00 6.268217164762720506e-01 4.402496702462715406e-01 -4.147630376698042132e-01 -3.039121220909494353e-02 -2.524858359243769557e-01 2.722678612500185544e-02 -1.652622846536739853e-01 -1.165473187275649636e+00 -1.266263037961409488e+00 -4.957239159119676275e-01 -1.078882413463814194e-01 3.399264775196720323e-01
-8.869974404466405282e-01 8.449186404741153567e-01 6.153364783362816892e-01 -2.461154052379226354e+00 -1.479417554307608518e-01 -4.365762749287391831e-01 1.166506592690210176e-01 -3.330291702352895733e+00 -7.005633973004622428e-01 3.183455048019466216e-01 2.707743415248824448e-01 -6.110352083529826395e-01 -9.010557330592272596e-02 1.099925001397189739e+00 -2.067176743902933156e-01 4.988331840728347788e-01 -3.485458837154387646e-01 2.790731731877013067e-01 -1.473694466181284080e+00 1.651758384670078073e+00 1.749117392813989369e+00 -6.370315811070922374e-01 5.197277038516726760e-02 3.115050918526693025e+00 -7.222325116117349619e-01 1.499340804680675765e+00 3.242061370965104161e-01 1.480382268814147917e+00 1.307947111612369540e+00 5.724474226206095751e-02 -6.606440013869319117e-01 -6.554651586315306255e-02 -1.133599475795280531e+00 -1.091572827764882403e+00 2.885753979135593728e+00 1.387118494924315382e-01 1.966171498055749034e-01 -4.355069398943797188e-01 -1.646254557003601349e-02 -2.154163051812890028e+00 -1.279209335165227612e+00 4.966666075114000711e-01 2.597387396309897678e+00 6.670306187468327819e-01 1.136059102305937873e+00 3.997129785172630068e-01 -2.874787646169252753e+00 1.334773043003386395e+00 5.195631292115547861e-01 4.264754001454325483e+00 -9.288899178486325070e-01 6.626304805782572416e-01 6.931460547301221409e-01 -2.172055263386259705e-01 8.191246123039076787e-02 -1.760038911031640119e+00 9.058159427582923584e-01 4.741567487917576484e-04 2.557965479381243856e+00 9.505697044651473249e-02 2.588714748032864069e-02 2.289318362574399135e+00 1.494825050534286603e+00 2.478845283550260570e-01 1.118854446612309594e+00 4.728872364207008516e-01 6.576437658712208645e-01 -6.363834964906459613e-01 -2.316831901465320254e+00 -2.020791861942718537e+00 5.823589849833493703e-02 5.690937932287120082e-01 1.334146195821636960e+00 4.440664742232907081e-01 -1.374178579492148833e+00 -1.157914034487838917e+00 -3.458817925592545528e-01 4.476296009754622829e-01 -4.650329744389847253e-01 -5.137318974535112215e-01 -2.824979744126911996e-01 -2.749254449736234229e-01 2.355903929535938079e+00 6.922375310769003365e-01 6.765845979609905747e-01 1.145534184532414956e+00 5.987256288311831876e-01 3.357585901148025798e-01 4.553873362090872789e-01 -3.574631360220354992e-01 5.948451194105903728e-01 -1.601288230154888359e-01 -9.437412832176218513e-01 -9.608852652795785154e-01 -1.822385335544467910e+00 2.505514419934253834e+00 -2.332648054357272863e-02 2.050827896049536303e-01 1.107139279476548221e+00 -2.422181216809378590e+00 -2.856153203520124806e-01 4.607831817258715990e-02 2.677562211513491719e-01 -6.109989076675530484e-01 2.568839681759129689e-01 -1.972538752082700686e+00 3.031758722450313970e-01 -9.479152851087414566e-01 4.598231599122621360e-01 -5.686694630241043713e-01 5.353018646488292287e-01 1.157369592208650350e-01 4.946506721066690204e-01 8.727983734888984380e-01 -1.189385615971966903e+00 -4.808721528958934122e-01 5.024150629394436712e-02 -5.825089223714718933e-01 1.522675883210018233e+00 9.611175717748695613e-01 1.966071808455973402e+00 -1.377566449072998411e+00 -5.434821945130100529e-01 -1.989049340855743309e-01 8.531855180683672879e-02 -3.955828198641982985e-01 -1.202713267818178444e+00 -6.096462967649670661e-01 -2.273318146477508461e-01 8.931939368855250638e-01 -4.445529152139984230e-01 1.357523442434968031e+00 -5.278956182323105706e-01 -5.494665915908494291e-01 5.839303422811902289e-01 2.622926976377916441e-02 2.883471613479429707e-01 2.138494466696324814e+00 5.236229272694916670e-01 -4.426612787752126632e-01 -3.481905217536983010e-01 1.008871990043005873e+00 -5.045389484674995401e-02 1.664576796212740573e-01 -6.253945858755464160e-01 -2.923577639616009027e-01 -1.264136279649567818e-01 -1.004290239035523946e+00 1.384085964323871432e+00 -8.239524189663091081e-01 9.885515170370390292e-02 1.943040892862167301e-01 -3.621310071993286833e-02 4.668879233109344828e-01 -2.400963199587340391e+00 -3.736266232707302626e-01 -3.281297332034640579e-01 3.761912273610782398e-01 -1.078875337473490514e+00 -4.225351640214409232e-01 -1.039967475208349590e-01 -7.089093628815547055e-01 2.349346134552029230e+00 5.162749307551069977e-01 4.380592166661801401e-01 -6.912606472174036287e-02 4.357140931273780771e-01 -1.337248537151390693e+00 3.266129421042955894e-01 -1.211335815899816204e+00 -6.686595254399835264e-01 1.157149205900333960e-01 4.965488923808670241e-01 -1.030093372532552731e+00 -2.180666368586204329e-01 -1.157838510122975340e+00 -1.230657698272038525e-01 -3.422536658138689014e-01 1.188876085121574278e+00 -9.785237849072562222e-01 9.000405174662350072e-02 -2.298622123791805028e-01 1.182843266727936771e-01 4.819710769219641699e-01 2.312262478347717032e+00 -1.023948504533283010e+00 9.660608799692972370e-01 -1.602267099562368236e+00 3.035358889425222029e-01 5.367329448229629651e-01 1.221703475725383514e+00 3.736254331892021607e-01 3.358179575716671028e-01 1.708098713194640572e+00 1.073006102402519896e-01 -2.130913838848980946e-01 2.194540761338552581e+00 2.045647839869098039e+00 -7.600052434144216607e-01 2.084926445724164523e+00 2.533651940300840066e-01 7.045531538707093810e-01 1.514826993831996260e+00 8.166625009600061436e-01 -6.299064959563359378e-03 -8.671593062967516419e-01 1.717208171698747066e+00 1.034120820877937996e+00 -1.498054492467017218e-03 6.198565548083254662e-01 8.892198859770439334e-02 1.075692395490719155e+00 -4.266447565912344364e-04 7.928640621730635996e-01 7.932285930226331550e-01 3.608940177760863732e-01 1.405671942915053707e+00 -3.572723083291480251e-01 -1.032272223855221105e+00 -2.096984794374491479e+00 -1.534242114745679064e+00 9.618810635766300576e-01 1.455546236789100611e-01 2.725636257156616726e-01 -3.022751671492964198e-01 3.798495543077033409e-01 -3.835084308526454100e-01 1.438258003453320555e+00 -9.726312825025279496e-02 -2.875395615317160591e-01 6.286554912257370509e-01 2.888814827760849413e-01 1.442767625643434082e+00 3.095284265814537417e+00 -2.281140919180282278e-01 4.334343333047381563e-02 -1.650633980247660837e+00 2.705191701432831941e+00 2.853910505473673531e-01 -2.924014802907838328e-01 3.626797798723702670e-01 -9.513207590503369726e-02 6.711268054831267538e-01 1.042364998578225954e+00 3.946373339437029948e+00 -9.137596010814084124e-01 -8.727026212218556844e-02 -1.911609128613899866e+00 -1.878580273766394249e-01 -3.995199543651279939e-01 -4.725425621897537121e-01 1.084195132485661128e+00 -4.492668595205741577e-01 -1.018803663165985668e-01 1.913343820812649365e-01 -1.066152526007887458e-01 1.043743616883379133e+00 2.099627806469727354e+00 -1.496604037293215728e-01 -3.200364332625330738e-02 -4.755837071024850982e-01 -1.352943275043805016e-01 -2.592832793826012061e+00 1.078189376612880501e+00 -1.586511423014251854e+00 -1.230604617050302663e+00 -1.041667335664573368e+00 -6.174803603143297348e-01 7.391158114535268941e-01 -6.557144114797175405e-02 6.860835433033715125e-01 -7.340587830354387000e-01 -5.709725337229247799e-01 1.439403789280036206e+00 -4.247122467892617825e-01 2.690864591573108866e-01 1.382886220234421093e-01 1.295167411640087314e-02 6.180155691919285710e-01 -7.233378091207007254e-02 7.257518816243530013e-01 1.252097343786029215e+00 -9.894065267010805353e-01 4.734952810754209374e-01 4.044713827105155673e-02 -2.838786338962536182e-01 -2.450159551617960563e-01 2.618471521729523466e-02 -6.995078684634465915e-01 7.177187391846459041e-01 8.577948505074254326e-01 -7.879927353308616156e-02 1.026019322809549550e+00 -6.290496825237651413e-01 4.306621564691399673e-01 -2.473917734101687138e-01 2.016320730804676553e-01 2.274013546178977122e-02 -2.384991394322830138e-01 -4.619091254888648690e-01 1.036155596914208443e+00 -3.927782022197987555e-01 -1.662184372850860514e+00 4.869254750649947838e-01 4.208758100936234925e+00 4.527361300762063334e-01 -2.165629983278095860e+00 -9.869565424703085066e-01 -7.721547944853677237e-01 -7.722483950990107759e-01 -2.864693175539192449e+00 -3.971489186276578320e-01 6.816922939027818540e-01 1.003352052998460753e+00 1.335663061441396016e+00 -2.916218751081645078e-01 5.298231519228785436e-01 3.834395974206927238e-01 3.144511756159296567e+00 9.391022051052964059e-01 1.008551838502734554e+00 3.584581992398484518e-01 6.707638102011344028e-01 -2.861393581938038722e-01 9.669988932828836870e-01 -5.618634039136870539e-01 7.924551459950635035e-01 -2.745161557000398211e+00 7.397215380501364068e-01 -1.115476471798297897e+00 -5.705096991015847774e-01 2.947229727571478275e+00 -1.492061794095993710e+00 -8.540144134938600917e-01 -1.579986635041277510e-01 7.602632133614027898e-01 2.745081147465118221e-01 3.589166692692211114e-01 -6.499339421927008420e-01 -8.737633116088321106e-03 4.930130969796045481e-01 -4.729463743896502592e-01 3.041042736425391135e-01 -5.687809989269384525e-01 8.570707214318119549e-01 2.966116178725410890e-01 -2.376628288040467663e-01 -2.844336972285955056e+00 2.398721687585687323e-01 -7.703189029226231721e-02 -7.172025233958910784e-01 4.563936740533277581e-01 3.392677208965446667e-01 4.927508921420513388e-03 -3.040633204494631869e-02 -8.710746551307269048e-01 5.816071129949925700e-01 1.120527848296756668e+00 3.209100893966221890e-01 -2.206988669494807542e+00 1.386556078978984641e-01 -1.221106979518846058e+00 -7.151220997718742423e-01 5.779246979760974678e-01 -4.761155315431183643e-01 -7.714977690463730164e-01 1.244549016507191075e+00 -3.879991656343635964e-01 -1.105388302822631230e+00 -1.408531047335194186e-01 2.126174487755717379e+00 2.790768205253861822e-01 1.109851659801345924e+00 2.041645528742840332e-01 -4.497098485885557828e-01 -3.241872199749645134e+00 -8.501295983111437637e-01 -1.475240618640198953e-01 6.517594673375129988e-01 4.552651055177253103e-01 5.585090231837711583e-01 1.055008104643198052e+00 -5.772625505466365547e-01 -3.439862601018142674e-01 6.295544736369611538e-01 1.420438756450811690e-01 -4.056456977495665472e-01 -8.732982723144478987e-01 1.731484887067321343e-01 -6.054145336686229673e-01 -1.402018309867765877e+00 7.253950896020047168e-01 2.578917223912867929e+00 -3.121372730941059381e-01 -2.105969277359021619e-01 -2.696723359537861464e-01 1.295034656461412359e+00 -5.492017651393655830e-01 -2.316580590209880997e-02 1.324216313182109861e+00 6.027714618037479655e-01 -7.552638537838439747e-01 6.826536848446081995e-01 4.611760286981091139e-03 -9.452332988553486803e-01 2.533429670978014636e-01 9.069737934414568992e-01 -6.583751664944041959e-01 3.109067536512894470e-01 8.057912638590428722e-01 6.050987275874598614e-01 1.154953079083138323e-01 1.054651198908569842e+00 -1.017663534004971393e-01 -5.076392029446646914e-01 -1.205993922684754915e+00 2.622363689795045860e-01 -1.156057263529639112e+00 1.813312829579319052e+00 5.242835107588245114e-01 -2.259342803117865728e+00 1.963693871271788016e-01 9.338334260151294197e-01 3.619232838492180138e-01 -8.525321986512912620e-01 6.863944578735255986e-01 5.234274781606508276e-01 -8.079919950149045960e-01 5.138999326557359693e-01 -1.982880624586048912e-01 -9.454723289364100891e-01 2.178721527666808433e-01 7.460542872321715979e-01 6.074435150898016555e-01 -7.361387353864796701e-01 -1.510238045613700175e-01 1.236774613402645689e-01 -2.080146868597628096e+00 -5.317913867699269881e-01 1.378903853816703995e+00 2.038727793668223751e-02 -2.910746937249971134e-01 -7.673363250924580825e-01 -1.013054004331152280e-01 -1.160032699966748515e+00 1.707223349115349897e+00 -2.206022631147347701e-01 6.727255541267853634e-01 -2.156609857680534537e-01 1.363458857008599256e+00 -2.452510124079876785e+00 8.460869290538109988e-01 2.194893898001374632e-01 -8.882093875569450070e-01 4.463674362621780078e-01 1.761766275138799687e-01 3.204081633742863477e-01 5.920328649797004239e-01 1.493614720773588145e+00 -4.541559165318275193e-01 6.891554762426069791e-01 5.110742442157084620e-01 1.119822261263304086e-01 6.830083749740789578e-01 2.726011009004996044e-01 1.321905886178823541e+00 -9.717405359882176352e-01 1.585622182527591351e+00 2.724395399440740384e+00 5.501445287287053398e-01 8.435809138507562033e-02 4.056387270370249154e-01 -8.714288059279985399e-01 1.586190486284918100e+00 -9.355705708995551984e-01 3.684263348350783618e-01 1.129688118630990806e-01 -6.419166124383248739e-01 1.031991760723232288e+00 1.297750610171649832e+00 -4.806176895953167549e-01 -2.189101487689318670e+00 1.027227221634229082e+00 2.002334218201094473e-01 -6.653061187694497836e-01 1.081434523061537645e+00 4.582872245105000519e-02 2.196550034868046453e+00 -1.426940870983606224e-01 -2.443227335648896492e-01 -3.960101537101081703e+00 9.959273017202062428e-02 -2.904763128341862344e-01 4.326401529049359040e-01 -7.488646775850256176e-01 -8.074073181457369630e-01 -4.685460812208699366e-01 -5.134772961615677311e-02 2.072590460504705190e-01 -7.741494412633495581e-02 -3.413870253036815350e-01 6.425220304494595469e-01 2.328541405986663260e-01 -4.788267407456179292e-01 -1.217088509673342964e-02 -1.142224900515523611e+00 -1.459563366634835546e+00 5.035376778463278580e-01 1.056266975404931197e+00 4.246693681080735416e+00 1.454494423929022728e+00 -3.250519240470902682e-01 -1.129254357733227465e+00 2.104203530570902259e-01 -1.641355399305137297e+00 2.732053864158033640e+00 -4.562316140686355492e-01 4.872433371297623522e-03 -5.870515227867479924e-01 1.044801252679856962e-01 8.320222447222798134e-01 5.386671594585403788e-01 1.080871694506144509e+00 -2.592095814317171953e+00 -3.086027174008391660e-01 6.473219090832005307e-02 1.250040798683379195e-01 6.606431624032252370e-02 7.881525954643331389e-01 5.140042981898799990e-02 -1.218930420188726105e+00 5.201559984692298855e-01 4.686577280222703479e-01 -1.197050675511697415e+00 -8.633700207525638048e-02 -4.751560828293531213e-01 2.749938732299164190e+00 2.439821995883416861e+00 1.582982494018647213e+00 2.412564727338527837e-01 2.960557348821867343e-02 8.314344204903421076e-01 -1.550804942810494413e+00 6.483396606682750862e-02 7.617090176937016954e-01 -2.257124256909869064e+00 -7.574440093312743150e-01 2.270550436929115179e-01 1.189040454727847002e-01 3.401709810257516620e-02 -6.695190013063639922e-01 4.763207424806571444e-01 -5.164533882886017668e-01 1.796745201103697176e-01 -1.461437627092166736e+00 -6.597702499842411639e-01 -2.460033380367798173e-01 1.446786727979074261e+00 2.462654329163261657e+00 -3.159064531378945162e+00 -7.174159961561330512e-01 2.912197819768600482e-01 2.188489592349972257e-01 1.774078241060350170e+00 1.543832741476524495e+00 5.200923897158201692e-01 -2.227383472779378426e+00 5.524677460247335858e-01 -3.091412535892517494e-02 -1.175738616813441773e-01 3.618265770881992638e-01 -6.964842166177165339e-01 2.923699231570306423e-02 -9.748665515487615618e-01 -4.287084678096670931e-01 9.084754895663533780e-01 -5.285655408251767329e-02 7.160919066371175534e-02 -7.449127647892258564e-01 -2.295854957035147470e-01 -2.350143999325181310e-01 -4.891767895985270065e-01 2.284893670436783375e-01 -1.858609822274229773e+00 -1.595203500278589981e-02 9.839810213071716882e-01 -4.723344435121765855e-02 -3.983519357012932915e-01 -1.053707151027926558e+00 3.932577088953646549e-01 1.417276241021241112e-01 -8.969273583184750320e-01 1.042058107013791757e+00 4.770167587706326540e-01 -3.444092999817924827e-01 -4.060758410026662490e-01 2.416034232303373996e-02 -3.181253698930303297e+00 -7.657318209016896748e-01 1.764090309763271414e+00 1.213215273436910602e+00 -1.708542729446220765e-01 -1.243509554437451481e+00 -5.864609379463896488e-01 -7.602241811433473329e-01 -2.979024388299897463e+00 -7.530766527671186594e-01 -4.846869479882236487e-01 -6.744253099206446445e-01 -1.702444593430241238e-01 7.627086241757975449e-01 -6.804075409850070255e-02 6.850326144230685088e-01 6.071879890900062637e-01 -6.645025942081303483e-02 -1.588314525731329585e+00 1.035360818735096000e+00 1.266108568563211856e+00 1.822855818979611797e-01 4.203365311634506551e-01 -5.385609688063061062e-01 9.776561435061112970e-01 1.462189035552821537e+00 2.360517469820519743e-01 2.404187739766340814e-01 -4.615366217732859155e-01 1.835512028191451872e+00 -4.790220673918664795e-01 8.191853839750328214e-01 7.083769062715026266e-01 6.798804473500215384e-02 1.724654095775200791e+00 1.378282439622072975e+00 -1.323634029391400846e+00 8.559086606537559538e-02 5.765221732128409382e-01 4.855457485075384549e-01 3.705374243673357215e-01 1.314052800603349169e+00 1.152250240938291759e-01 1.444151765549673172e+00 1.750456363787072367e-01 -1.240301144530497474e-01 -1.552155188354099186e-03 -9.910315530129996109e-01 3.194149564436601363e-01 6.849117442856846871e-01 3.201625821130358318e-01 1.742543989985747777e+00 -7.775330220587758911e-02 1.867360193618116670e-01 3.790116796112095621e+00 5.664240216408763517e-01 -1.496120830594612205e-01 -7.562171067853400430e-01 3.181114717492777855e-01 3.260373668248601753e-01 1.537942899233293165e-02 8.099048112169009439e-01 5.175285231680282205e-01 -4.602466459187656844e-01 -5.653142635594279319e-01 1.580928458330893127e+00 1.497503190631259029e+00 7.881488851810254381e-01 -2.868122620550664359e-02 6.947644961382019035e-01 9.852386925098345349e-01 -1.090425867741060095e+00 1.863895354413801775e-01 -3.417077964219963349e-01 7.372219612669546063e-01 5.283423351128141432e-01 -5.503940362478257908e-01 1.163507802535106661e+00 -6.389349504273768021e-01 1.294184187448478074e+00 5.668147194426447211e-01 -4.302327362737460303e-01 6.151703304859590382e-02 -1.531114433426963295e+00 -3.364356551690386166e-01 -2.867543815245165995e+00 5.144776700035025296e-02 -1.759325993177063729e+00 1.123704945369827124e+00 2.139490237410161644e+00 -5.371020531947003906e-01 9.481857581198709362e-01 -5.305243659540984646e-01 -1.563947820889900198e-01 -1.030969535512100466e+00 6.184437951117137677e-01 2.429403586904564302e-02 -1.150795007091909739e+00 7.224745276864227295e-01 -7.340290807882463575e-01 4.943538877613881666e-01 4.734961205925838912e-01 -1.441853894078402698e+00 -8.597119817783290818e-01 3.440778448225423336e-02 -1.541808601086756825e-01 2.038775683865071908e+00 1.141406291547713447e+00 -4.049664680366445446e-01 -1.742207267535930360e+00 -1.298850150743404708e+00 5.908542025873156911e-01 -2.780283445856139846e-01 -1.263182676222003975e+00 2.905539529073221730e-02 1.585521917671656733e-01 5.481020479143101642e-01 1.459396705896400581e+00 -6.234023377587486620e-02 -4.671621219299096905e-01 -8.010172879493125953e-01 8.443068599893215342e-01 -4.257749893071108294e-01 2.710808747062734558e-02 -1.046386459308798145e+00 9.254763767231881377e-02 -2.926077997303463629e+00 2.244164795248219768e+00 -9.353203809265150381e-01 1.811742637846283976e+00 4.894301628137563420e-01 2.582734846906687975e-01 -7.777900461276608945e-01 3.164552737025922435e-01 6.986359914290615203e-01 3.417110955101382297e-02 -8.202155325552078213e-02 -3.634751285787904962e-01 1.815084856748266362e-01 5.290782898561003922e-01 5.056261628962185339e-01 -1.042048973410817148e+00 2.722105054476665620e-01 -3.724616110048312168e-02 -7.238259852251069937e-01 9.687622164280333958e-01 1.174812853964155024e-01 1.543348055689969467e+00 1.787747005945395706e+00 9.616462466290253142e-01 -5.243555940017713413e-01 -1.116175651684741643e+00 -2.665949943324349980e-02 -4.205954167413745171e-01 1.093575398157253131e+00 1.883909371867003912e+00 -7.190259754984450885e-03 1.587619894751884253e+00 3.379676787289342510e+00 6.750120023030087291e-01 2.882000732825606426e-01 -5.535858108608505690e-01 -6.667527963581738604e-01 9.157480195608785900e-02 6.548099531438095200e-01 5.765909742936474736e-01 2.928262553052670136e-01 -1.415385617571316645e+00 -3.658184022807851876e-02 -4.606485191351781250e-01 2.888235211655704737e-01 -1.211902401925590844e+00 2.388790588779805268e-01 7.478123753435212961e-01 3.716742271148240628e-02 4.395171915328289769e-01 -4.128812208843431475e-01 -3.709220913713434098e-01 -5.987703854409328619e-01 3.162984024904891278e-02 -9.172180842919583910e-01 -5.228795692172649029e-02 7.422276787069823634e-01 1.131953330731100549e-01 2.136548005002069858e-02 -3.542865294983246760e-01 2.272457589771711139e-01 9.401662044921340611e-01 2.079212900071394643e-01 -7.204883672943629414e-01 -2.592365423308767847e-01 5.771448849472995413e-01 -4.905102146631765136e-01 1.645601491884301160e+00 2.868463804530575478e-01 1.348835242787556066e+00 -5.847747632147796137e-01 1.536122969247650794e+00 9.679999219476459471e-01 2.603769287733320725e-01 4.982479126819460702e-01 3.852721124246952789e-01 -1.976842664516743842e+00 -5.867645773662575337e-01 1.285530072946052260e-01 1.122208067061625458e+00 -7.903519944755295068e-01 -1.956863073931244257e+00 -8.455407936377222766e-01 -1.249791404702393693e+00 8.664804599765626447e-01 1.709613337164472613e+00 -1.824649970066965610e+00 8.349043761673605735e-01 1.235108928877980849e+00 -7.280892626774189136e-01 -8.608416360073898321e-01 -3.406510086059242326e+00 2.056455808218854708e-01 -2.080837811503148671e-02 1.099107401133080364e-01 -1.072352710150819899e+00 -5.769365598502582682e-01 2.877601746760302781e+00 1.221889567117855568e+00 1.214760978612703379e+00 8.323913505472625707e-02 -3.172857424431296119e-02 -8.867973569925250432e-01 -1.798051413432439238e+00 -5.988455745800197461e-01 -1.223352268075235671e-01 -3.011443077288668557e-01 -9.639040403975059901e-01 2.080639697182949721e+00 5.971729581362575923e-01 -4.190095464461841557e-01 2.434791403325687054e-01 -4.674133436538089881e-01 -5.827439638474659622e-01 1.091567719940348194e-02 8.169568593404249457e-01 -7.652978905366372153e-01 4.129795971427621670e-01 5.628914632733129642e-01 -8.134481968806257512e-01 1.278208926476980034e+00 -3.863700958309986278e-01 9.320209850461371737e-01 -1.270581636123383706e+00 1.164949238570098800e-01 3.385932454789247065e-02 -9.135806970271594940e-01 -7.161005835053593227e-01 2.004702543990570796e-01 2.037940555603915960e-01 -4.153213467659748193e-01 2.680670818402673961e-01 -6.046132716698218029e-02 9.671835390311424030e-01 -1.564840412813021109e+00 -4.140363838950468223e-01 2.278379394164645522e+00 -8.552363512331766227e-02 2.827869311012758846e+00 -1.030551742523530212e+00 -5.844759579081872936e-01 1.936017935421055380e+00 -5.283920810334373774e-01 -2.247898736402619946e+00 5.901496249500355340e-01 1.073687264014619336e+00 5.193258496703883065e-01 3.607975538428268569e-01 5.246534850385481397e-01 -1.745412911120003852e+00 -3.040388932627010377e+00 2.180359441136402732e-01 -1.030479549205766121e+00 -2.056197725861512726e-01 -2.491829905921375765e+00 -2.086603212050180400e-01 9.220691373464892093e-01 -7.075537174416440811e-02 -3.927459095854577975e-01 1.909597074086197166e+00 -2.958299683867382956e+00 -2.237988838919674706e+00 -1.080653014714662241e+00 1.838881275620949829e+00 -9.865595239469382438e-01 -1.057762954914049480e+00 7.586132196053778642e-01 9.608737728475630346e-01 1.345128195094643209e+00 -7.455529836027696700e-01 6.478091949767016411e-01 1.150373972711053044e-01 7.359788541515172033e-01 -1.800421652409899487e+00 8.116294932783891802e-01 4.965853275112109833e-01 3.877931804613740097e-01 -1.700348892437553439e-01 3.345970042310678072e-01 -4.293600888200418270e-02 1.157359359126625797e+00 -3.762185036325181309e-01 -1.640572652410373866e+00 3.471470198069819268e-01 -2.527231189468057693e+00 2.719067384592334102e-01 -1.413860005558968957e+00 1.163002414671054252e+00 6.262775394227297898e-01 5.800985036072695555e-01 -3.571912600594761011e-01 1.037565905602340521e+00 -3.389337902862747942e-01 8.847186378765639070e-01 1.547807872168394383e-01 1.331527279162405097e+00 2.610825830177255225e-01 -1.790373150927766499e+00 -3.518554906782371261e-01 -4.185330086667440885e-01 -2.425221444403764526e-01 -3.342653983018004649e-01 -2.963565281995003131e-01 2.394007491157891021e+00 6.630302986092985185e-01 -9.135929608159826243e-01 1.468768391246900284e+00 2.778824465198151739e+00 2.931390912340751775e+00 6.421617163340720413e-01 -3.376423221316901535e-01 1.723224061592012468e+00 3.035003197798725183e-01 2.322898306533016100e-01 5.556430924230899571e-01 -3.623589610925974092e-01 -1.756772338964983637e+00 -8.642302926962852627e-01 -4.526013067095465553e-02 1.843976373322958162e+00 -1.525357354062468751e+00 7.038363485055375568e-01 -1.086087419132633958e+00 -3.028292561027122187e-01 -1.811360544195810829e-01 -1.038726147172705616e+00 1.876819137182382802e+00 5.777318019915662906e-02 -4.006289979587358552e-01 2.016988108441482019e+00 4.356397001428322091e-01 -2.591119784444952945e+00 -7.672586059903553357e-01 8.797768513876015328e-01 -7.718050366003579299e-01 1.278747955824298677e+00 2.539011983849271958e-01 7.888343967184666683e-01 -6.490228429082575135e-01 -6.894753928106319707e-01 1.598379126653719284e+00 1.287871749839383240e-01 3.425935384891175967e-03 -1.239254875282300022e-01 -5.012547584010166313e-01 -1.888658338838521633e+00 5.032042731209707132e-01 -1.313797970722488051e+00 1.027924938330759819e+00 -3.342606755535334484e-01 -1.666169326519133298e+00 -2.295182659677753589e-01 6.415535150996933833e-01 1.361832242966412476e+00 6.575781333907159132e-01 -5.628943175293322776e-01 2.230060029564488733e-01 5.003203325518131017e-02 9.290475744240771494e-01 4.886245161521790559e-01 -3.387104748222061201e-01 -9.688527247623277550e-01 -6.810463345950317215e-01 1.113315950848702718e+00 -8.468511481329663582e-01 2.248282001196202362e+00 4.553841582772660823e-01 3.334849607065006882e+00 1.216409278585515619e+00 -3.284899340870598983e-01 -4.115030464591234449e-01 5.592315011788274726e-01 4.774281573724827310e-01 1.950606955404042830e+00 2.613776900800735548e-01 1.047045778604029920e-01 5.481622548055540278e-01
